File: JAG XRF Scan 3 Tails.csv
Bruker AXS HMP Instrument Tools Complete CSV
FileName,C:\Users\skel2534\Desktop\Sydney Grammar\Jack Glass\JAG XRF Scan 3 Tails.pdz
SerialString,
TubeTargetElement,45
NumberOfSpectra,1
SampleID,
AcquisitionDateTime,11/05/2021 11:52:53 AM
TotalElapsedTimeInSeconds,31
AnodeTakeOffAngle,53
SampleIncidenceAngle,45
BeThicknessInMicroMeters,75
SampleTakeOffAngle,65
SpotSizeUsed,-1
XrayVoltageInkV,40,
XrayFilamentCurrentInMicroAmps,3.2,
RawCounts,245761,
ValidCounts,189243,
eVPerChannel,20,
StartingKeV,0,
ZeroOffsetInKeV,0,
StartingChannel,0,
NumberOfChannels,2048,
CountsPerSecond,8192.033,
XilinxFirmwareVersion,808,
IlluminationID,,
Filter1ElementAtomicNum,22,
Filter1Thickness,25,
Filter2ElementAtomicNum,13,
Filter2Thickness,300,
Filter3ElementAtomicNum,0,
Filter3Thickness,0,
AcquisitionDateTime,11/05/2021 11:52:53 AM,
LiveTimeInSeconds,24.583,
DeadTimeInSeconds,5.386999,
ResetTimeInSeconds,0.12,
DetectorTempInC,-40.5,
AmbientTempInF,94.4,
NosePressureInMilliBars,,
NoseTemperatureInC,,
ActiveTimeInSeconds,30,
PacketTimeInSeconds,30.12,
CommunicationTimeInSeconds,0.8799992,
ElapsedClockTimeInSeconds,31,
Spectrum:ChannelNumber,ChannelStartInKeV,ChannelCount
1,0,6
3,0.04,6
5,0.08,4
7,0.12,2
9,0.16,0
11,0.2,0
13,0.24,1
15,0.28,0
17,0.32,0
19,0.36,0
21,0.4,1
23,0.44,1
25,0.48,0
27,0.52,1
29,0.56,2
31,0.6,10
33,0.64,3
35,0.68,4
37,0.72,6
39,0.76,5
41,0.8,12
43,0.84,10
45,0.88,7
47,0.92,8
49,0.96,7
51,1,6
53,1.04,12
55,1.08,10
57,1.12,7
59,1.16,9
61,1.2,11
63,1.24,8
65,1.28,6
67,1.32,8
69,1.36,8
71,1.4,15
73,1.44,12
75,1.48,9
77,1.52,8
79,1.56,9
81,1.6,6
83,1.64,9
85,1.68,9
87,1.72,8
89,1.76,8
91,1.8,7
93,1.84,6
95,1.88,6
97,1.92,8
99,1.96,13
101,2,5
103,2.04,10
105,2.08,6
107,2.12,4
109,2.16,2
111,2.2,7
113,2.24,12
115,2.28,4
117,2.32,12
119,2.36,12
121,2.4,10
123,2.44,13
125,2.48,10
127,2.52,9
129,2.56,8
131,2.6,14
133,2.64,14
135,2.68,7
137,2.72,6
139,2.76,6
141,2.8,1
143,2.84,8
145,2.88,7
147,2.92,8
149,2.96,9
151,3,8
153,3.04,8
155,3.08,3
157,3.12,5
159,3.16,6
161,3.2,5
163,3.24,7
165,3.28,5
167,3.32,8
169,3.36,4
171,3.4,6
173,3.44,10
175,3.48,9
177,3.52,9
179,3.56,12
181,3.6,12
183,3.64,11
185,3.68,10
187,3.72,9
189,3.76,8
191,3.8,6
193,3.84,4
195,3.88,4
197,3.92,5
199,3.96,6
201,4,3
203,4.04,3
205,4.08,3
207,4.12,4
209,4.16,5
211,4.2,6
213,4.24,4
215,4.28,8
217,4.32,3
219,4.36,1
221,4.4,3
223,4.44,3
225,4.48,3
227,4.52,0
229,4.56,5
231,4.6,1
233,4.64,3
235,4.68,2
237,4.72,4
239,4.76,3
241,4.8,5
243,4.84,5
245,4.88,6
247,4.92,5
249,4.96,5
251,5,12
253,5.04,3
255,5.08,6
257,5.12,5
259,5.16,10
261,5.2,6
263,5.24,2
265,5.28,5
267,5.32,4
269,5.36,7
271,5.4,2
273,5.44,7
275,5.48,2
277,5.52,2
279,5.56,3
281,5.6,7
283,5.64,8
285,5.68,2
287,5.72,5
289,5.76,4
291,5.8,5
293,5.84,5
295,5.88,7
297,5.92,10
299,5.96,2
301,6,4
303,6.04,4
305,6.08,7
307,6.12,6
309,6.16,8
311,6.2,18
313,6.24,23
315,6.28,45
317,6.32,42
319,6.36,39
321,6.4,32
323,6.44,21
325,6.48,28
327,6.52,11
329,6.56,20
331,6.6,17
333,6.64,7
335,6.68,6
337,6.72,7
339,6.76,11
341,6.8,10
343,6.84,8
345,6.88,11
347,6.92,15
349,6.96,10
351,7,10
353,7.04,10
355,7.08,11
357,7.12,7
359,7.16,12
361,7.2,8
363,7.24,17
365,7.28,9
367,7.32,7
369,7.36,14
371,7.4,20
373,7.44,29
375,7.48,30
377,7.52,41
379,7.56,27
381,7.6,30
383,7.64,44
385,7.68,41
387,7.72,53
389,7.76,163
391,7.8,413
393,7.84,1119
395,7.88,2441
397,7.92,4808
399,7.96,7378
401,8,10131
403,8.04,11331
405,8.08,10645
407,8.12,8254
409,8.16,5447
411,8.2,3036
413,8.24,1417
415,8.28,609
417,8.32,240
419,8.36,96
421,8.4,57
423,8.44,43
425,8.48,32
427,8.52,32
429,8.56,45
431,8.6,57
433,8.64,112
435,8.68,183
437,8.72,351
439,8.76,575
441,8.8,1009
443,8.84,1543
445,8.88,1805
447,8.92,1814
449,8.96,1663
451,9,1115
453,9.04,685
455,9.08,370
457,9.12,189
459,9.16,93
461,9.2,46
463,9.24,34
465,9.28,14
467,9.32,12
469,9.36,5
471,9.4,8
473,9.44,7
475,9.48,2
477,9.52,5
479,9.56,4
481,9.6,3
483,9.64,5
485,9.68,1
487,9.72,3
489,9.76,5
491,9.8,0
493,9.84,5
495,9.88,3
497,9.92,3
499,9.96,4
501,10,4
503,10.04,2
505,10.08,2
507,10.12,8
509,10.16,6
511,10.2,5
513,10.24,10
515,10.28,10
517,10.32,46
519,10.36,82
521,10.4,117
523,10.44,213
525,10.48,288
527,10.52,350
529,10.56,393
531,10.6,343
533,10.64,264
535,10.68,169
537,10.72,111
539,10.76,57
541,10.8,37
543,10.84,16
545,10.88,11
547,10.92,11
549,10.96,18
551,11,48
553,11.04,63
555,11.08,129
557,11.12,194
559,11.16,223
561,11.2,258
563,11.24,265
565,11.28,239
567,11.32,161
569,11.36,95
571,11.4,44
573,11.44,33
575,11.48,19
577,11.52,13
579,11.56,6
581,11.6,9
583,11.64,12
585,11.68,11
587,11.72,16
589,11.76,9
591,11.8,11
593,11.84,6
595,11.88,10
597,11.92,7
599,11.96,7
601,12,7
603,12.04,10
605,12.08,11
607,12.12,9
609,12.16,20
611,12.2,23
613,12.24,27
615,12.28,28
617,12.32,44
619,12.36,54
621,12.4,95
623,12.44,106
625,12.48,180
627,12.52,250
629,12.56,288
631,12.6,308
633,12.64,311
635,12.68,243
637,12.72,230
639,12.76,173
641,12.8,78
643,12.84,51
645,12.88,31
647,12.92,34
649,12.96,18
651,13,16
653,13.04,20
655,13.08,17
657,13.12,8
659,13.16,8
661,13.2,7
663,13.24,6
665,13.28,4
667,13.32,8
669,13.36,12
671,13.4,5
673,13.44,7
675,13.48,3
677,13.52,3
679,13.56,6
681,13.6,1
683,13.64,3
685,13.68,6
687,13.72,8
689,13.76,8
691,13.8,9
693,13.84,6
695,13.88,3
697,13.92,3
699,13.96,4
701,14,3
703,14.04,6
705,14.08,2
707,14.12,5
709,14.16,6
711,14.2,8
713,14.24,5
715,14.28,8
717,14.32,12
719,14.36,6
721,14.4,3
723,14.44,2
725,14.48,12
727,14.52,12
729,14.56,6
731,14.6,17
733,14.64,22
735,14.68,35
737,14.72,47
739,14.76,44
741,14.8,46
743,14.84,43
745,14.88,27
747,14.92,25
749,14.96,17
751,15,11
753,15.04,11
755,15.08,16
757,15.12,21
759,15.16,21
761,15.2,23
763,15.24,22
765,15.28,23
767,15.32,10
769,15.36,15
771,15.4,5
773,15.44,4
775,15.48,8
777,15.52,4
779,15.56,6
781,15.6,7
783,15.64,3
785,15.68,12
787,15.72,8
789,15.76,12
791,15.8,10
793,15.84,8
795,15.88,17
797,15.92,27
799,15.96,39
801,16,53
803,16.04,66
805,16.08,54
807,16.12,56
809,16.16,62
811,16.2,37
813,16.24,34
815,16.28,18
817,16.32,11
819,16.36,13
821,16.4,13
823,16.44,6
825,16.48,4
827,16.52,14
829,16.56,5
831,16.6,6
833,16.64,8
835,16.68,8
837,16.72,14
839,16.76,12
841,16.8,15
843,16.84,16
845,16.88,21
847,16.92,21
849,16.96,29
851,17,17
853,17.04,16
855,17.08,22
857,17.12,12
859,17.16,14
861,17.2,12
863,17.24,9
865,17.28,6
867,17.32,4
869,17.36,7
871,17.4,3
873,17.44,5
875,17.48,3
877,17.52,6
879,17.56,9
881,17.6,8
883,17.64,11
885,17.68,6
887,17.72,8
889,17.76,8
891,17.8,11
893,17.84,6
895,17.88,16
897,17.92,9
899,17.96,8
901,18,8
903,18.04,6
905,18.08,8
907,18.12,6
909,18.16,11
911,18.2,11
913,18.24,7
915,18.28,10
917,18.32,9
919,18.36,9
921,18.4,7
923,18.44,22
925,18.48,13
927,18.52,13
929,18.56,11
931,18.6,12
933,18.64,21
935,18.68,19
937,18.72,11
939,18.76,12
941,18.8,17
943,18.84,25
945,18.88,13
947,18.92,19
949,18.96,25
951,19,22
953,19.04,21
955,19.08,17
957,19.12,19
959,19.16,22
961,19.2,20
963,19.24,19
965,19.28,17
967,19.32,17
969,19.36,21
971,19.4,12
973,19.44,19
975,19.48,19
977,19.52,15
979,19.56,11
981,19.6,10
983,19.64,19
985,19.68,13
987,19.72,12
989,19.76,13
991,19.8,14
993,19.84,12
995,19.88,23
997,19.92,20
999,19.96,25
1001,20,24
1003,20.04,24
1005,20.08,44
1007,20.12,49
1009,20.16,56
1011,20.2,42
1013,20.24,42
1015,20.28,25
1017,20.32,33
1019,20.36,22
1021,20.4,29
1023,20.44,9
1025,20.48,13
1027,20.52,4
1029,20.56,11
1031,20.6,5
1033,20.64,14
1035,20.68,10
1037,20.72,5
1039,20.76,19
1041,20.8,8
1043,20.84,12
1045,20.88,6
1047,20.92,9
1049,20.96,6
1051,21,6
1053,21.04,9
1055,21.08,9
1057,21.12,7
1059,21.16,6
1061,21.2,12
1063,21.24,8
1065,21.28,9
1067,21.32,16
1069,21.36,6
1071,21.4,11
1073,21.44,10
1075,21.48,9
1077,21.52,12
1079,21.56,6
1081,21.6,6
1083,21.64,10
1085,21.68,15
1087,21.72,11
1089,21.76,8
1091,21.8,19
1093,21.84,10
1095,21.88,32
1097,21.92,35
1099,21.96,34
1101,22,40
1103,22.04,48
1105,22.08,56
1107,22.12,47
1109,22.16,44
1111,22.2,37
1113,22.24,36
1115,22.28,29
1117,22.32,20
1119,22.36,15
1121,22.4,19
1123,22.44,7
1125,22.48,11
1127,22.52,7
1129,22.56,17
1131,22.6,19
1133,22.64,13
1135,22.68,9
1137,22.72,21
1139,22.76,27
1141,22.8,12
1143,22.84,12
1145,22.88,9
1147,22.92,8
1149,22.96,8
1151,23,9
1153,23.04,7
1155,23.08,7
1157,23.12,12
1159,23.16,9
1161,23.2,6
1163,23.24,3
1165,23.28,10
1167,23.32,7
1169,23.36,5
1171,23.4,11
1173,23.44,7
1175,23.48,10
1177,23.52,5
1179,23.56,4
1181,23.6,7
1183,23.64,8
1185,23.68,8
1187,23.72,7
1189,23.76,6
1191,23.8,7
1193,23.84,5
1195,23.88,6
1197,23.92,9
1199,23.96,6
1201,24,1
1203,24.04,2
1205,24.08,5
1207,24.12,7
1209,24.16,5
1211,24.2,11
1213,24.24,7
1215,24.28,5
1217,24.32,13
1219,24.36,3
1221,24.4,10
1223,24.44,6
1225,24.48,1
1227,24.52,4
1229,24.56,7
1231,24.6,9
1233,24.64,10
1235,24.68,9
1237,24.72,7
1239,24.76,13
1241,24.8,11
1243,24.84,14
1245,24.88,24
1247,24.92,31
1249,24.96,32
1251,25,44
1253,25.04,46
1255,25.08,57
1257,25.12,47
1259,25.16,83
1261,25.2,53
1263,25.24,51
1265,25.28,46
1267,25.32,46
1269,25.36,34
1271,25.4,31
1273,25.44,31
1275,25.48,16
1277,25.52,8
1279,25.56,9
1281,25.6,7
1283,25.64,6
1285,25.68,7
1287,25.72,7
1289,25.76,3
1291,25.8,14
1293,25.84,8
1295,25.88,7
1297,25.92,7
1299,25.96,4
1301,26,6
1303,26.04,11
1305,26.08,15
1307,26.12,9
1309,26.16,10
1311,26.2,9
1313,26.24,7
1315,26.28,7
1317,26.32,11
1319,26.36,10
1321,26.4,9
1323,26.44,8
1325,26.48,8
1327,26.52,7
1329,26.56,6
1331,26.6,9
1333,26.64,6
1335,26.68,6
1337,26.72,8
1339,26.76,3
1341,26.8,7
1343,26.84,4
1345,26.88,6
1347,26.92,1
1349,26.96,5
1351,27,8
1353,27.04,3
1355,27.08,6
1357,27.12,3
1359,27.16,10
1361,27.2,3
1363,27.24,7
1365,27.28,3
1367,27.32,7
1369,27.36,9
1371,27.4,5
1373,27.44,7
1375,27.48,7
1377,27.52,3
1379,27.56,4
1381,27.6,5
1383,27.64,5
1385,27.68,6
1387,27.72,6
1389,27.76,8
1391,27.8,2
1393,27.84,10
1395,27.88,3
1397,27.92,3
1399,27.96,8
1401,28,5
1403,28.04,5
1405,28.08,10
1407,28.12,6
1409,28.16,10
1411,28.2,6
1413,28.24,6
1415,28.28,6
1417,28.32,8
1419,28.36,11
1421,28.4,12
1423,28.44,19
1425,28.48,13
1427,28.52,14
1429,28.56,9
1431,28.6,11
1433,28.64,8
1435,28.68,7
1437,28.72,9
1439,28.76,7
1441,28.8,5
1443,28.84,5
1445,28.88,3
1447,28.92,7
1449,28.96,6
1451,29,4
1453,29.04,10
1455,29.08,5
1457,29.12,5
1459,29.16,4
1461,29.2,6
1463,29.24,1
1465,29.28,4
1467,29.32,5
1469,29.36,4
1471,29.4,4
1473,29.44,2
1475,29.48,5
1477,29.52,1
1479,29.56,6
1481,29.6,2
1483,29.64,4
1485,29.68,10
1487,29.72,6
1489,29.76,12
1491,29.8,4
1493,29.84,6
1495,29.88,6
1497,29.92,7
1499,29.96,4
1501,30,4
1503,30.04,5
1505,30.08,1
1507,30.12,6
1509,30.16,6
1511,30.2,6
1513,30.24,8
1515,30.28,5
1517,30.32,7
1519,30.36,6
1521,30.4,6
1523,30.44,4
1525,30.48,2
1527,30.52,6
1529,30.56,1
1531,30.6,11
1533,30.64,9
1535,30.68,4
1537,30.72,4
1539,30.76,3
1541,30.8,2
1543,30.84,2
1545,30.88,3
1547,30.92,2
1549,30.96,6
1551,31,6
1553,31.04,4
1555,31.08,5
1557,31.12,8
1559,31.16,3
1561,31.2,4
1563,31.24,3
1565,31.28,3
1567,31.32,3
1569,31.36,5
1571,31.4,5
1573,31.44,2
1575,31.48,5
1577,31.52,3
1579,31.56,3
1581,31.6,5
1583,31.64,3
1585,31.68,3
1587,31.72,4
1589,31.76,6
1591,31.8,6
1593,31.84,6
1595,31.88,4
1597,31.92,1
1599,31.96,3
1601,32,3
1603,32.04,1
1605,32.08,9
1607,32.12,4
1609,32.16,2
1611,32.2,7
1613,32.24,6
1615,32.28,2
1617,32.32,4
1619,32.36,3
1621,32.4,3
1623,32.44,5
1625,32.48,4
1627,32.52,3
1629,32.56,4
1631,32.6,5
1633,32.64,2
1635,32.68,7
1637,32.72,5
1639,32.76,3
1641,32.8,5
1643,32.84,1
1645,32.88,2
1647,32.92,2
1649,32.96,1
1651,33,5
1653,33.04,4
1655,33.08,2
1657,33.12,6
1659,33.16,3
1661,33.2,4
1663,33.24,6
1665,33.28,1
1667,33.32,4
1669,33.36,4
1671,33.4,2
1673,33.44,2
1675,33.48,3
1677,33.52,3
1679,33.56,3
1681,33.6,6
1683,33.64,4
1685,33.68,1
1687,33.72,11
1689,33.76,1
1691,33.8,2
1693,33.84,2
1695,33.88,6
1697,33.92,4
1699,33.96,3
1701,34,5
1703,34.04,1
1705,34.08,4
1707,34.12,4
1709,34.16,2
1711,34.2,3
1713,34.24,3
1715,34.28,3
1717,34.32,4
1719,34.36,2
1721,34.4,1
1723,34.44,2
1725,34.48,1
1727,34.52,3
1729,34.56,1
1731,34.6,1
1733,34.64,3
1735,34.68,3
1737,34.72,1
1739,34.76,3
1741,34.8,3
1743,34.84,4
1745,34.88,1
1747,34.92,1
1749,34.96,2
1751,35,2
1753,35.04,1
1755,35.08,4
1757,35.12,3
1759,35.16,1
1761,35.2,2
1763,35.24,2
1765,35.28,0
1767,35.32,2
1769,35.36,2
1771,35.4,1
1773,35.44,2
1775,35.48,3
1777,35.52,0
1779,35.56,4
1781,35.6,1
1783,35.64,3
1785,35.68,2
1787,35.72,2
1789,35.76,0
1791,35.8,1
1793,35.84,1
1795,35.88,0
1797,35.92,2
1799,35.96,1
1801,36,1
1803,36.04,1
1805,36.08,1
1807,36.12,1
1809,36.16,0
1811,36.2,0
1813,36.24,3
1815,36.28,1
1817,36.32,1
1819,36.36,1
1821,36.4,3
1823,36.44,0
1825,36.48,3
1827,36.52,3
1829,36.56,2
1831,36.6,1
1833,36.64,0
1835,36.68,1
1837,36.72,2
1839,36.76,2
1841,36.8,0
1843,36.84,1
1845,36.88,2
1847,36.92,2
1849,36.96,0
1851,37,0
1853,37.04,1
1855,37.08,1
1857,37.12,1
1859,37.16,2
1861,37.2,0
1863,37.24,0
1865,37.28,1
1867,37.32,1
1869,37.36,0
1871,37.4,2
1873,37.44,0
1875,37.48,0
1877,37.52,1
1879,37.56,1
1881,37.6,0
1883,37.64,1
1885,37.68,0
1887,37.72,1
1889,37.76,0
1891,37.8,0
1893,37.84,3
1895,37.88,0
1897,37.92,2
1899,37.96,0
1901,38,1
1903,38.04,0
1905,38.08,0
1907,38.12,0
1909,38.16,0
1911,38.2,0
1913,38.24,3
1915,38.28,0
1917,38.32,1
1919,38.36,2
1921,38.4,0
1923,38.44,2
1925,38.48,0
1927,38.52,0
1929,38.56,0
1931,38.6,0
1933,38.64,0
1935,38.68,2
1937,38.72,0
1939,38.76,0
1941,38.8,1
1943,38.84,0
1945,38.88,0
1947,38.92,0
1949,38.96,0
1951,39,0
1953,39.04,0
1955,39.08,0
1957,39.12,0
1959,39.16,0
1961,39.2,0
1963,39.24,0
1965,39.28,0
1967,39.32,0
1969,39.36,0
1971,39.4,0
1973,39.44,0
1975,39.48,0
1977,39.52,0
1979,39.56,0
1981,39.6,0
1983,39.64,0
1985,39.68,0
1987,39.72,0
1989,39.76,0
1991,39.8,0
1993,39.84,0
1995,39.88,0
1997,39.92,0
1999,39.96,0
2001,40,0
2003,40.04,0
2005,40.08,0
2007,40.12,0
2009,40.16,0
2011,40.2,0
2013,40.24,0
2015,40.28,0
2017,40.32,0
2019,40.36,0
2021,40.4,0
2023,40.44,0
2025,40.48,0
2027,40.52,0
2029,40.56,0
2031,40.6,0
2033,40.64,0
2035,40.68,0
2037,40.72,0
2039,40.76,0
2041,40.8,0
2043,40.84,0
2045,40.88,0
2047,40.92,0
2048,40.94,0