File: JAG XRF Scan 1 Head.csv
Bruker AXS HMP Instrument Tools Complete CSV
FileName,C:\Users\skel2534\Desktop\Sydney Grammar\Jack Glass\JAG XRF Scan 1 Head.pdz
SerialString,
TubeTargetElement,45
NumberOfSpectra,1
SampleID,
AcquisitionDateTime,11/05/2021 11:31:55 AM
TotalElapsedTimeInSeconds,182
AnodeTakeOffAngle,53
SampleIncidenceAngle,45
BeThicknessInMicroMeters,75
SampleTakeOffAngle,65
SpotSizeUsed,-1
XrayVoltageInkV,40,
XrayFilamentCurrentInMicroAmps,3.2,
RawCounts,1589896,
ValidCounts,1203340,
eVPerChannel,20,
StartingKeV,0,
ZeroOffsetInKeV,0,
StartingChannel,0,
NumberOfChannels,2048,
CountsPerSecond,8783.956,
XilinxFirmwareVersion,808,
IlluminationID,,
Filter1ElementAtomicNum,22,
Filter1Thickness,25,
Filter2ElementAtomicNum,13,
Filter2Thickness,300,
Filter3ElementAtomicNum,0,
Filter3Thickness,0,
AcquisitionDateTime,11/05/2021 11:31:55 AM,
LiveTimeInSeconds,146.1689,
DeadTimeInSeconds,34.65,
ResetTimeInSeconds,0.8739995,
DetectorTempInC,-40.5,
AmbientTempInF,94.4,
NosePressureInMilliBars,,
NoseTemperatureInC,,
ActiveTimeInSeconds,181,
PacketTimeInSeconds,181.874,
CommunicationTimeInSeconds,0.1260071,
ElapsedClockTimeInSeconds,182,
Spectrum:ChannelNumber,ChannelStartInKeV,ChannelCount
1,0,16
3,0.04,20
5,0.08,9
7,0.12,6
9,0.16,0
11,0.2,1
13,0.24,1
15,0.28,2
17,0.32,0
19,0.36,0
21,0.4,0
23,0.44,1
25,0.48,5
27,0.52,19
29,0.56,26
31,0.6,24
33,0.64,45
35,0.68,41
37,0.72,48
39,0.76,40
41,0.8,40
43,0.84,47
45,0.88,35
47,0.92,50
49,0.96,56
51,1,45
53,1.04,55
55,1.08,42
57,1.12,61
59,1.16,48
61,1.2,64
63,1.24,50
65,1.28,57
67,1.32,60
69,1.36,63
71,1.4,60
73,1.44,60
75,1.48,67
77,1.52,53
79,1.56,38
81,1.6,61
83,1.64,49
85,1.68,31
87,1.72,52
89,1.76,41
91,1.8,45
93,1.84,38
95,1.88,38
97,1.92,35
99,1.96,39
101,2,29
103,2.04,38
105,2.08,32
107,2.12,27
109,2.16,38
111,2.2,39
113,2.24,52
115,2.28,49
117,2.32,75
119,2.36,93
121,2.4,95
123,2.44,88
125,2.48,71
127,2.52,85
129,2.56,108
131,2.6,97
133,2.64,94
135,2.68,72
137,2.72,58
139,2.76,53
141,2.8,37
143,2.84,32
145,2.88,38
147,2.92,43
149,2.96,50
151,3,42
153,3.04,45
155,3.08,34
157,3.12,24
159,3.16,22
161,3.2,26
163,3.24,28
165,3.28,32
167,3.32,30
169,3.36,33
171,3.4,24
173,3.44,38
175,3.48,24
177,3.52,23
179,3.56,32
181,3.6,24
183,3.64,29
185,3.68,33
187,3.72,26
189,3.76,26
191,3.8,20
193,3.84,14
195,3.88,21
197,3.92,20
199,3.96,18
201,4,22
203,4.04,19
205,4.08,16
207,4.12,19
209,4.16,18
211,4.2,11
213,4.24,13
215,4.28,10
217,4.32,15
219,4.36,18
221,4.4,18
223,4.44,19
225,4.48,21
227,4.52,15
229,4.56,15
231,4.6,19
233,4.64,23
235,4.68,16
237,4.72,12
239,4.76,26
241,4.8,20
243,4.84,20
245,4.88,24
247,4.92,23
249,4.96,40
251,5,46
253,5.04,45
255,5.08,37
257,5.12,47
259,5.16,36
261,5.2,35
263,5.24,20
265,5.28,26
267,5.32,29
269,5.36,22
271,5.4,19
273,5.44,30
275,5.48,26
277,5.52,30
279,5.56,32
281,5.6,31
283,5.64,36
285,5.68,27
287,5.72,30
289,5.76,29
291,5.8,24
293,5.84,25
295,5.88,24
297,5.92,29
299,5.96,23
301,6,32
303,6.04,28
305,6.08,45
307,6.12,46
309,6.16,91
311,6.2,114
313,6.24,177
315,6.28,242
317,6.32,319
319,6.36,347
321,6.4,326
323,6.44,302
325,6.48,197
327,6.52,141
329,6.56,95
331,6.6,73
333,6.64,58
335,6.68,54
337,6.72,46
339,6.76,44
341,6.8,48
343,6.84,83
345,6.88,57
347,6.92,86
349,6.96,83
351,7,105
353,7.04,95
355,7.08,85
357,7.12,99
359,7.16,68
361,7.2,74
363,7.24,66
365,7.28,83
367,7.32,76
369,7.36,89
371,7.4,105
373,7.44,116
375,7.48,140
377,7.52,143
379,7.56,155
381,7.6,167
383,7.64,168
385,7.68,232
387,7.72,433
389,7.76,1022
391,7.8,2574
393,7.84,6565
395,7.88,14591
397,7.92,28047
399,7.96,45178
401,8,60297
403,8.04,67745
405,8.08,63258
407,8.12,49099
409,8.16,32429
411,8.2,18183
413,8.24,8500
415,8.28,3608
417,8.32,1492
419,8.36,581
421,8.4,365
423,8.44,260
425,8.48,231
427,8.52,231
429,8.56,297
431,8.6,400
433,8.64,568
435,8.68,1044
437,8.72,2015
439,8.76,3660
441,8.8,6339
443,8.84,8553
445,8.88,10624
447,8.92,10899
449,8.96,9467
451,9,6870
453,9.04,4411
455,9.08,2375
457,9.12,1206
459,9.16,603
461,9.2,342
463,9.24,220
465,9.28,165
467,9.32,90
469,9.36,81
471,9.4,43
473,9.44,37
475,9.48,30
477,9.52,21
479,9.56,26
481,9.6,30
483,9.64,25
485,9.68,23
487,9.72,28
489,9.76,23
491,9.8,26
493,9.84,13
495,9.88,18
497,9.92,22
499,9.96,18
501,10,26
503,10.04,25
505,10.08,22
507,10.12,30
509,10.16,43
511,10.2,53
513,10.24,98
515,10.28,216
517,10.32,501
519,10.36,910
521,10.4,1657
523,10.44,2454
525,10.48,3531
527,10.52,4007
529,10.56,4289
531,10.6,3817
533,10.64,3016
535,10.68,1999
537,10.72,1145
539,10.76,630
541,10.8,325
543,10.84,161
545,10.88,113
547,10.92,106
549,10.96,192
551,11,302
553,11.04,566
555,11.08,981
557,11.12,1506
559,11.16,1955
561,11.2,2206
563,11.24,2152
565,11.28,1861
567,11.32,1387
569,11.36,880
571,11.4,523
573,11.44,289
575,11.48,165
577,11.52,82
579,11.56,67
581,11.6,49
583,11.64,45
585,11.68,57
587,11.72,56
589,11.76,62
591,11.8,73
593,11.84,55
595,11.88,47
597,11.92,59
599,11.96,58
601,12,76
603,12.04,82
605,12.08,130
607,12.12,179
609,12.16,203
611,12.2,241
613,12.24,280
615,12.28,389
617,12.32,452
619,12.36,627
621,12.4,847
623,12.44,1290
625,12.48,1996
627,12.52,2861
629,12.56,3563
631,12.6,3971
633,12.64,3885
635,12.68,3306
637,12.72,2568
639,12.76,1828
641,12.8,1201
643,12.84,776
645,12.88,486
647,12.92,321
649,12.96,238
651,13,219
653,13.04,189
655,13.08,179
657,13.12,112
659,13.16,94
661,13.2,83
663,13.24,47
665,13.28,44
667,13.32,56
669,13.36,40
671,13.4,45
673,13.44,43
675,13.48,44
677,13.52,30
679,13.56,30
681,13.6,24
683,13.64,28
685,13.68,31
687,13.72,23
689,13.76,22
691,13.8,17
693,13.84,25
695,13.88,32
697,13.92,32
699,13.96,26
701,14,32
703,14.04,37
705,14.08,29
707,14.12,44
709,14.16,41
711,14.2,52
713,14.24,52
715,14.28,36
717,14.32,47
719,14.36,57
721,14.4,46
723,14.44,56
725,14.48,63
727,14.52,78
729,14.56,118
731,14.6,212
733,14.64,277
735,14.68,371
737,14.72,466
739,14.76,477
741,14.8,481
743,14.84,395
745,14.88,318
747,14.92,209
749,14.96,178
751,15,161
753,15.04,132
755,15.08,169
757,15.12,184
759,15.16,162
761,15.2,160
763,15.24,152
765,15.28,128
767,15.32,109
769,15.36,73
771,15.4,59
773,15.44,61
775,15.48,44
777,15.52,31
779,15.56,47
781,15.6,49
783,15.64,56
785,15.68,54
787,15.72,62
789,15.76,68
791,15.8,72
793,15.84,87
795,15.88,111
797,15.92,152
799,15.96,215
801,16,322
803,16.04,343
805,16.08,394
807,16.12,364
809,16.16,339
811,16.2,248
813,16.24,173
815,16.28,113
817,16.32,92
819,16.36,53
821,16.4,45
823,16.44,47
825,16.48,41
827,16.52,44
829,16.56,44
831,16.6,41
833,16.64,48
835,16.68,53
837,16.72,56
839,16.76,64
841,16.8,80
843,16.84,103
845,16.88,143
847,16.92,142
849,16.96,160
851,17,148
853,17.04,145
855,17.08,115
857,17.12,62
859,17.16,67
861,17.2,56
863,17.24,46
865,17.28,51
867,17.32,36
869,17.36,38
871,17.4,40
873,17.44,51
875,17.48,47
877,17.52,47
879,17.56,39
881,17.6,41
883,17.64,48
885,17.68,51
887,17.72,52
889,17.76,63
891,17.8,44
893,17.84,51
895,17.88,56
897,17.92,64
899,17.96,58
901,18,43
903,18.04,44
905,18.08,44
907,18.12,49
909,18.16,52
911,18.2,48
913,18.24,68
915,18.28,41
917,18.32,49
919,18.36,50
921,18.4,67
923,18.44,76
925,18.48,87
927,18.52,91
929,18.56,103
931,18.6,93
933,18.64,111
935,18.68,106
937,18.72,108
939,18.76,112
941,18.8,97
943,18.84,108
945,18.88,94
947,18.92,94
949,18.96,96
951,19,99
953,19.04,123
955,19.08,124
957,19.12,141
959,19.16,109
961,19.2,112
963,19.24,117
965,19.28,100
967,19.32,98
969,19.36,105
971,19.4,100
973,19.44,101
975,19.48,105
977,19.52,102
979,19.56,63
981,19.6,94
983,19.64,84
985,19.68,100
987,19.72,99
989,19.76,77
991,19.8,87
993,19.84,102
995,19.88,119
997,19.92,121
999,19.96,133
1001,20,157
1003,20.04,206
1005,20.08,248
1007,20.12,237
1009,20.16,296
1011,20.2,242
1013,20.24,264
1015,20.28,207
1017,20.32,163
1019,20.36,124
1021,20.4,90
1023,20.44,81
1025,20.48,89
1027,20.52,76
1029,20.56,72
1031,20.6,79
1033,20.64,90
1035,20.68,91
1037,20.72,78
1039,20.76,74
1041,20.8,77
1043,20.84,49
1045,20.88,53
1047,20.92,51
1049,20.96,40
1051,21,62
1053,21.04,39
1055,21.08,53
1057,21.12,60
1059,21.16,68
1061,21.2,59
1063,21.24,60
1065,21.28,48
1067,21.32,61
1069,21.36,71
1071,21.4,63
1073,21.44,56
1075,21.48,64
1077,21.52,62
1079,21.56,66
1081,21.6,51
1083,21.64,65
1085,21.68,61
1087,21.72,69
1089,21.76,75
1091,21.8,91
1093,21.84,123
1095,21.88,124
1097,21.92,162
1099,21.96,214
1101,22,237
1103,22.04,268
1105,22.08,303
1107,22.12,307
1109,22.16,286
1111,22.2,251
1113,22.24,231
1115,22.28,169
1117,22.32,124
1119,22.36,94
1121,22.4,87
1123,22.44,65
1125,22.48,56
1127,22.52,67
1129,22.56,54
1131,22.6,64
1133,22.64,94
1135,22.68,80
1137,22.72,94
1139,22.76,77
1141,22.8,85
1143,22.84,78
1145,22.88,77
1147,22.92,54
1149,22.96,70
1151,23,44
1153,23.04,45
1155,23.08,57
1157,23.12,46
1159,23.16,57
1161,23.2,44
1163,23.24,36
1165,23.28,34
1167,23.32,49
1169,23.36,34
1171,23.4,39
1173,23.44,37
1175,23.48,37
1177,23.52,46
1179,23.56,49
1181,23.6,44
1183,23.64,48
1185,23.68,46
1187,23.72,40
1189,23.76,38
1191,23.8,43
1193,23.84,28
1195,23.88,44
1197,23.92,36
1199,23.96,39
1201,24,53
1203,24.04,36
1205,24.08,54
1207,24.12,31
1209,24.16,42
1211,24.2,43
1213,24.24,37
1215,24.28,36
1217,24.32,40
1219,24.36,38
1221,24.4,32
1223,24.44,42
1225,24.48,36
1227,24.52,42
1229,24.56,35
1231,24.6,34
1233,24.64,48
1235,24.68,43
1237,24.72,53
1239,24.76,66
1241,24.8,78
1243,24.84,111
1245,24.88,134
1247,24.92,136
1249,24.96,183
1251,25,179
1253,25.04,191
1255,25.08,202
1257,25.12,226
1259,25.16,208
1261,25.2,252
1263,25.24,207
1265,25.28,222
1267,25.32,179
1269,25.36,179
1271,25.4,139
1273,25.44,125
1275,25.48,76
1277,25.52,63
1279,25.56,56
1281,25.6,48
1283,25.64,48
1285,25.68,40
1287,25.72,31
1289,25.76,20
1291,25.8,39
1293,25.84,31
1295,25.88,45
1297,25.92,32
1299,25.96,33
1301,26,32
1303,26.04,40
1305,26.08,43
1307,26.12,45
1309,26.16,45
1311,26.2,44
1313,26.24,31
1315,26.28,52
1317,26.32,52
1319,26.36,49
1321,26.4,56
1323,26.44,46
1325,26.48,30
1327,26.52,36
1329,26.56,37
1331,26.6,32
1333,26.64,27
1335,26.68,30
1337,26.72,33
1339,26.76,36
1341,26.8,27
1343,26.84,38
1345,26.88,29
1347,26.92,32
1349,26.96,31
1351,27,22
1353,27.04,33
1355,27.08,32
1357,27.12,31
1359,27.16,32
1361,27.2,33
1363,27.24,37
1365,27.28,32
1367,27.32,38
1369,27.36,27
1371,27.4,34
1373,27.44,22
1375,27.48,31
1377,27.52,41
1379,27.56,39
1381,27.6,35
1383,27.64,34
1385,27.68,29
1387,27.72,49
1389,27.76,29
1391,27.8,35
1393,27.84,37
1395,27.88,26
1397,27.92,35
1399,27.96,29
1401,28,45
1403,28.04,36
1405,28.08,37
1407,28.12,38
1409,28.16,35
1411,28.2,47
1413,28.24,58
1415,28.28,33
1417,28.32,45
1419,28.36,72
1421,28.4,65
1423,28.44,77
1425,28.48,66
1427,28.52,68
1429,28.56,60
1431,28.6,63
1433,28.64,42
1435,28.68,41
1437,28.72,37
1439,28.76,46
1441,28.8,27
1443,28.84,35
1445,28.88,43
1447,28.92,47
1449,28.96,37
1451,29,37
1453,29.04,37
1455,29.08,45
1457,29.12,40
1459,29.16,36
1461,29.2,41
1463,29.24,30
1465,29.28,38
1467,29.32,30
1469,29.36,32
1471,29.4,28
1473,29.44,36
1475,29.48,34
1477,29.52,35
1479,29.56,39
1481,29.6,34
1483,29.64,50
1485,29.68,29
1487,29.72,33
1489,29.76,35
1491,29.8,42
1493,29.84,41
1495,29.88,32
1497,29.92,38
1499,29.96,30
1501,30,21
1503,30.04,39
1505,30.08,29
1507,30.12,30
1509,30.16,32
1511,30.2,29
1513,30.24,28
1515,30.28,29
1517,30.32,26
1519,30.36,32
1521,30.4,23
1523,30.44,32
1525,30.48,27
1527,30.52,28
1529,30.56,28
1531,30.6,26
1533,30.64,30
1535,30.68,21
1537,30.72,24
1539,30.76,35
1541,30.8,39
1543,30.84,33
1545,30.88,29
1547,30.92,13
1549,30.96,26
1551,31,28
1553,31.04,22
1555,31.08,24
1557,31.12,29
1559,31.16,29
1561,31.2,20
1563,31.24,19
1565,31.28,20
1567,31.32,28
1569,31.36,27
1571,31.4,29
1573,31.44,19
1575,31.48,26
1577,31.52,27
1579,31.56,29
1581,31.6,25
1583,31.64,22
1585,31.68,25
1587,31.72,18
1589,31.76,20
1591,31.8,21
1593,31.84,15
1595,31.88,17
1597,31.92,28
1599,31.96,21
1601,32,24
1603,32.04,19
1605,32.08,28
1607,32.12,25
1609,32.16,28
1611,32.2,29
1613,32.24,19
1615,32.28,28
1617,32.32,20
1619,32.36,24
1621,32.4,26
1623,32.44,25
1625,32.48,20
1627,32.52,20
1629,32.56,21
1631,32.6,18
1633,32.64,26
1635,32.68,26
1637,32.72,21
1639,32.76,33
1641,32.8,28
1643,32.84,13
1645,32.88,17
1647,32.92,15
1649,32.96,30
1651,33,16
1653,33.04,25
1655,33.08,29
1657,33.12,29
1659,33.16,17
1661,33.2,27
1663,33.24,30
1665,33.28,30
1667,33.32,21
1669,33.36,18
1671,33.4,23
1673,33.44,19
1675,33.48,18
1677,33.52,19
1679,33.56,20
1681,33.6,20
1683,33.64,16
1685,33.68,20
1687,33.72,6
1689,33.76,22
1691,33.8,8
1693,33.84,25
1695,33.88,20
1697,33.92,17
1699,33.96,20
1701,34,10
1703,34.04,15
1705,34.08,14
1707,34.12,24
1709,34.16,15
1711,34.2,13
1713,34.24,20
1715,34.28,22
1717,34.32,15
1719,34.36,18
1721,34.4,18
1723,34.44,6
1725,34.48,9
1727,34.52,19
1729,34.56,16
1731,34.6,15
1733,34.64,27
1735,34.68,17
1737,34.72,12
1739,34.76,9
1741,34.8,17
1743,34.84,9
1745,34.88,15
1747,34.92,16
1749,34.96,8
1751,35,9
1753,35.04,10
1755,35.08,9
1757,35.12,8
1759,35.16,8
1761,35.2,8
1763,35.24,11
1765,35.28,12
1767,35.32,6
1769,35.36,9
1771,35.4,15
1773,35.44,8
1775,35.48,6
1777,35.52,12
1779,35.56,14
1781,35.6,12
1783,35.64,6
1785,35.68,15
1787,35.72,12
1789,35.76,15
1791,35.8,12
1793,35.84,12
1795,35.88,13
1797,35.92,14
1799,35.96,11
1801,36,13
1803,36.04,6
1805,36.08,14
1807,36.12,5
1809,36.16,18
1811,36.2,10
1813,36.24,10
1815,36.28,10
1817,36.32,9
1819,36.36,11
1821,36.4,6
1823,36.44,5
1825,36.48,12
1827,36.52,12
1829,36.56,3
1831,36.6,8
1833,36.64,8
1835,36.68,12
1837,36.72,11
1839,36.76,7
1841,36.8,6
1843,36.84,6
1845,36.88,8
1847,36.92,11
1849,36.96,6
1851,37,4
1853,37.04,5
1855,37.08,9
1857,37.12,4
1859,37.16,7
1861,37.2,6
1863,37.24,6
1865,37.28,2
1867,37.32,11
1869,37.36,5
1871,37.4,8
1873,37.44,1
1875,37.48,6
1877,37.52,2
1879,37.56,7
1881,37.6,9
1883,37.64,1
1885,37.68,2
1887,37.72,1
1889,37.76,7
1891,37.8,2
1893,37.84,4
1895,37.88,4
1897,37.92,7
1899,37.96,2
1901,38,1
1903,38.04,2
1905,38.08,3
1907,38.12,3
1909,38.16,4
1911,38.2,3
1913,38.24,3
1915,38.28,3
1917,38.32,2
1919,38.36,3
1921,38.4,2
1923,38.44,0
1925,38.48,2
1927,38.52,0
1929,38.56,5
1931,38.6,2
1933,38.64,0
1935,38.68,2
1937,38.72,0
1939,38.76,0
1941,38.8,1
1943,38.84,1
1945,38.88,0
1947,38.92,1
1949,38.96,0
1951,39,2
1953,39.04,1
1955,39.08,2
1957,39.12,1
1959,39.16,0
1961,39.2,1
1963,39.24,1
1965,39.28,0
1967,39.32,2
1969,39.36,2
1971,39.4,2
1973,39.44,1
1975,39.48,0
1977,39.52,1
1979,39.56,2
1981,39.6,0
1983,39.64,2
1985,39.68,0
1987,39.72,0
1989,39.76,1
1991,39.8,0
1993,39.84,0
1995,39.88,1
1997,39.92,2
1999,39.96,0
2001,40,0
2003,40.04,1
2005,40.08,0
2007,40.12,1
2009,40.16,0
2011,40.2,0
2013,40.24,0
2015,40.28,0
2017,40.32,0
2019,40.36,0
2021,40.4,0
2023,40.44,1
2025,40.48,0
2027,40.52,1
2029,40.56,1
2031,40.6,0
2033,40.64,0
2035,40.68,1
2037,40.72,0
2039,40.76,1
2041,40.8,0
2043,40.84,0
2045,40.88,0
2047,40.92,1
2048,40.94,0