File: JAG XRF Scan 1 Tails.csv
Bruker AXS HMP Instrument Tools Complete CSV
FileName,C:\Users\skel2534\Desktop\Sydney Grammar\Jack Glass\JAG XRF Scan 1 Tails.pdz
SerialString,
TubeTargetElement,45
NumberOfSpectra,1
SampleID,
AcquisitionDateTime,11/05/2021 11:48:59 AM
TotalElapsedTimeInSeconds,32
AnodeTakeOffAngle,53
SampleIncidenceAngle,45
BeThicknessInMicroMeters,75
SampleTakeOffAngle,65
SpotSizeUsed,-1
XrayVoltageInkV,40,
XrayFilamentCurrentInMicroAmps,3.2,
RawCounts,274401,
ValidCounts,206930,
eVPerChannel,20,
StartingKeV,0,
ZeroOffsetInKeV,0,
StartingChannel,0,
NumberOfChannels,2048,
CountsPerSecond,8851.646,
XilinxFirmwareVersion,808,
IlluminationID,,
Filter1ElementAtomicNum,22,
Filter1Thickness,25,
Filter2ElementAtomicNum,13,
Filter2Thickness,300,
Filter3ElementAtomicNum,0,
Filter3Thickness,0,
AcquisitionDateTime,11/05/2021 11:48:59 AM,
LiveTimeInSeconds,24.996,
DeadTimeInSeconds,5.973001,
ResetTimeInSeconds,0.145,
DetectorTempInC,-40.5,
AmbientTempInF,94.4,
NosePressureInMilliBars,,
NoseTemperatureInC,,
ActiveTimeInSeconds,31,
PacketTimeInSeconds,31.145,
CommunicationTimeInSeconds,0.8549995,
ElapsedClockTimeInSeconds,32,
Spectrum:ChannelNumber,ChannelStartInKeV,ChannelCount
1,0,4
3,0.04,3
5,0.08,1
7,0.12,1
9,0.16,0
11,0.2,0
13,0.24,0
15,0.28,0
17,0.32,1
19,0.36,0
21,0.4,0
23,0.44,0
25,0.48,1
27,0.52,2
29,0.56,3
31,0.6,4
33,0.64,9
35,0.68,4
37,0.72,8
39,0.76,3
41,0.8,12
43,0.84,10
45,0.88,6
47,0.92,11
49,0.96,9
51,1,4
53,1.04,7
55,1.08,9
57,1.12,8
59,1.16,9
61,1.2,7
63,1.24,8
65,1.28,2
67,1.32,9
69,1.36,5
71,1.4,11
73,1.44,11
75,1.48,9
77,1.52,7
79,1.56,9
81,1.6,4
83,1.64,4
85,1.68,5
87,1.72,3
89,1.76,2
91,1.8,6
93,1.84,4
95,1.88,6
97,1.92,7
99,1.96,7
101,2,8
103,2.04,6
105,2.08,6
107,2.12,3
109,2.16,5
111,2.2,5
113,2.24,8
115,2.28,9
117,2.32,9
119,2.36,8
121,2.4,12
123,2.44,15
125,2.48,13
127,2.52,14
129,2.56,8
131,2.6,17
133,2.64,7
135,2.68,15
137,2.72,9
139,2.76,10
141,2.8,5
143,2.84,7
145,2.88,4
147,2.92,7
149,2.96,7
151,3,9
153,3.04,4
155,3.08,5
157,3.12,4
159,3.16,5
161,3.2,6
163,3.24,0
165,3.28,2
167,3.32,3
169,3.36,7
171,3.4,7
173,3.44,3
175,3.48,8
177,3.52,5
179,3.56,8
181,3.6,7
183,3.64,5
185,3.68,9
187,3.72,2
189,3.76,5
191,3.8,5
193,3.84,0
195,3.88,6
197,3.92,4
199,3.96,3
201,4,3
203,4.04,2
205,4.08,4
207,4.12,0
209,4.16,3
211,4.2,1
213,4.24,4
215,4.28,1
217,4.32,8
219,4.36,1
221,4.4,4
223,4.44,4
225,4.48,1
227,4.52,1
229,4.56,3
231,4.6,5
233,4.64,0
235,4.68,2
237,4.72,5
239,4.76,1
241,4.8,4
243,4.84,3
245,4.88,4
247,4.92,7
249,4.96,10
251,5,11
253,5.04,9
255,5.08,10
257,5.12,8
259,5.16,5
261,5.2,3
263,5.24,5
265,5.28,3
267,5.32,6
269,5.36,7
271,5.4,5
273,5.44,1
275,5.48,6
277,5.52,4
279,5.56,6
281,5.6,6
283,5.64,6
285,5.68,3
287,5.72,2
289,5.76,8
291,5.8,4
293,5.84,6
295,5.88,3
297,5.92,7
299,5.96,4
301,6,4
303,6.04,6
305,6.08,13
307,6.12,11
309,6.16,17
311,6.2,24
313,6.24,44
315,6.28,52
317,6.32,50
319,6.36,60
321,6.4,64
323,6.44,49
325,6.48,42
327,6.52,36
329,6.56,11
331,6.6,10
333,6.64,11
335,6.68,17
337,6.72,6
339,6.76,5
341,6.8,8
343,6.84,13
345,6.88,15
347,6.92,6
349,6.96,9
351,7,23
353,7.04,14
355,7.08,14
357,7.12,8
359,7.16,19
361,7.2,12
363,7.24,14
365,7.28,9
367,7.32,14
369,7.36,12
371,7.4,21
373,7.44,23
375,7.48,23
377,7.52,21
379,7.56,35
381,7.6,28
383,7.64,42
385,7.68,44
387,7.72,89
389,7.76,197
391,7.8,481
393,7.84,1295
395,7.88,2768
397,7.92,5381
399,7.96,8457
401,8,11463
403,8.04,12706
405,8.08,11729
407,8.12,9439
409,8.16,6064
411,8.2,3428
413,8.24,1632
415,8.28,666
417,8.32,298
419,8.36,112
421,8.4,68
423,8.44,38
425,8.48,45
427,8.52,40
429,8.56,55
431,8.6,63
433,8.64,113
435,8.68,214
437,8.72,379
439,8.76,731
441,8.8,1120
443,8.84,1713
445,8.88,2041
447,8.92,2046
449,8.96,1739
451,9,1266
453,9.04,768
455,9.08,424
457,9.12,194
459,9.16,102
461,9.2,50
463,9.24,20
465,9.28,15
467,9.32,7
469,9.36,6
471,9.4,5
473,9.44,5
475,9.48,5
477,9.52,2
479,9.56,1
481,9.6,2
483,9.64,7
485,9.68,3
487,9.72,2
489,9.76,3
491,9.8,3
493,9.84,4
495,9.88,2
497,9.92,7
499,9.96,5
501,10,2
503,10.04,2
505,10.08,1
507,10.12,3
509,10.16,8
511,10.2,3
513,10.24,7
515,10.28,10
517,10.32,30
519,10.36,60
521,10.4,100
523,10.44,141
525,10.48,242
527,10.52,262
529,10.56,284
531,10.6,244
533,10.64,180
535,10.68,112
537,10.72,72
539,10.76,49
541,10.8,23
543,10.84,18
545,10.88,8
547,10.92,13
549,10.96,14
551,11,40
553,11.04,81
555,11.08,122
557,11.12,215
559,11.16,269
561,11.2,284
563,11.24,294
565,11.28,246
567,11.32,148
569,11.36,114
571,11.4,55
573,11.44,41
575,11.48,13
577,11.52,9
579,11.56,8
581,11.6,4
583,11.64,5
585,11.68,7
587,11.72,3
589,11.76,13
591,11.8,10
593,11.84,10
595,11.88,8
597,11.92,0
599,11.96,5
601,12,2
603,12.04,10
605,12.08,11
607,12.12,9
609,12.16,15
611,12.2,18
613,12.24,20
615,12.28,35
617,12.32,44
619,12.36,46
621,12.4,67
623,12.44,100
625,12.48,143
627,12.52,201
629,12.56,199
631,12.6,209
633,12.64,222
635,12.68,206
637,12.72,156
639,12.76,115
641,12.8,75
643,12.84,49
645,12.88,41
647,12.92,18
649,12.96,17
651,13,15
653,13.04,17
655,13.08,17
657,13.12,12
659,13.16,9
661,13.2,10
663,13.24,5
665,13.28,3
667,13.32,6
669,13.36,5
671,13.4,6
673,13.44,4
675,13.48,6
677,13.52,2
679,13.56,6
681,13.6,2
683,13.64,6
685,13.68,5
687,13.72,3
689,13.76,3
691,13.8,7
693,13.84,2
695,13.88,3
697,13.92,5
699,13.96,1
701,14,4
703,14.04,5
705,14.08,8
707,14.12,4
709,14.16,4
711,14.2,4
713,14.24,9
715,14.28,13
717,14.32,9
719,14.36,5
721,14.4,9
723,14.44,12
725,14.48,5
727,14.52,9
729,14.56,10
731,14.6,23
733,14.64,23
735,14.68,34
737,14.72,34
739,14.76,37
741,14.8,41
743,14.84,37
745,14.88,20
747,14.92,19
749,14.96,17
751,15,15
753,15.04,10
755,15.08,10
757,15.12,22
759,15.16,12
761,15.2,18
763,15.24,14
765,15.28,12
767,15.32,12
769,15.36,9
771,15.4,8
773,15.44,8
775,15.48,8
777,15.52,2
779,15.56,7
781,15.6,9
783,15.64,10
785,15.68,18
787,15.72,8
789,15.76,14
791,15.8,8
793,15.84,12
795,15.88,23
797,15.92,34
799,15.96,48
801,16,66
803,16.04,74
805,16.08,89
807,16.12,85
809,16.16,62
811,16.2,56
813,16.24,34
815,16.28,17
817,16.32,19
819,16.36,13
821,16.4,9
823,16.44,8
825,16.48,14
827,16.52,7
829,16.56,7
831,16.6,8
833,16.64,14
835,16.68,10
837,16.72,8
839,16.76,14
841,16.8,14
843,16.84,16
845,16.88,18
847,16.92,32
849,16.96,34
851,17,33
853,17.04,15
855,17.08,16
857,17.12,13
859,17.16,7
861,17.2,9
863,17.24,16
865,17.28,10
867,17.32,8
869,17.36,10
871,17.4,8
873,17.44,7
875,17.48,8
877,17.52,6
879,17.56,9
881,17.6,12
883,17.64,10
885,17.68,4
887,17.72,6
889,17.76,6
891,17.8,9
893,17.84,12
895,17.88,8
897,17.92,14
899,17.96,6
901,18,6
903,18.04,7
905,18.08,5
907,18.12,8
909,18.16,11
911,18.2,7
913,18.24,11
915,18.28,9
917,18.32,9
919,18.36,8
921,18.4,13
923,18.44,11
925,18.48,11
927,18.52,18
929,18.56,18
931,18.6,13
933,18.64,12
935,18.68,15
937,18.72,20
939,18.76,16
941,18.8,13
943,18.84,23
945,18.88,19
947,18.92,12
949,18.96,17
951,19,22
953,19.04,11
955,19.08,20
957,19.12,23
959,19.16,15
961,19.2,17
963,19.24,9
965,19.28,26
967,19.32,20
969,19.36,19
971,19.4,15
973,19.44,18
975,19.48,11
977,19.52,11
979,19.56,16
981,19.6,17
983,19.64,8
985,19.68,9
987,19.72,18
989,19.76,20
991,19.8,23
993,19.84,16
995,19.88,21
997,19.92,25
999,19.96,25
1001,20,32
1003,20.04,38
1005,20.08,43
1007,20.12,35
1009,20.16,32
1011,20.2,39
1013,20.24,46
1015,20.28,42
1017,20.32,26
1019,20.36,20
1021,20.4,16
1023,20.44,17
1025,20.48,9
1027,20.52,12
1029,20.56,12
1031,20.6,14
1033,20.64,14
1035,20.68,12
1037,20.72,17
1039,20.76,9
1041,20.8,7
1043,20.84,16
1045,20.88,9
1047,20.92,14
1049,20.96,9
1051,21,7
1053,21.04,8
1055,21.08,5
1057,21.12,2
1059,21.16,17
1061,21.2,14
1063,21.24,7
1065,21.28,9
1067,21.32,11
1069,21.36,11
1071,21.4,10
1073,21.44,10
1075,21.48,9
1077,21.52,8
1079,21.56,8
1081,21.6,13
1083,21.64,17
1085,21.68,10
1087,21.72,10
1089,21.76,16
1091,21.8,17
1093,21.84,23
1095,21.88,34
1097,21.92,24
1099,21.96,55
1101,22,39
1103,22.04,40
1105,22.08,46
1107,22.12,48
1109,22.16,59
1111,22.2,49
1113,22.24,43
1115,22.28,39
1117,22.32,21
1119,22.36,20
1121,22.4,13
1123,22.44,14
1125,22.48,6
1127,22.52,11
1129,22.56,15
1131,22.6,14
1133,22.64,7
1135,22.68,12
1137,22.72,13
1139,22.76,15
1141,22.8,13
1143,22.84,10
1145,22.88,6
1147,22.92,9
1149,22.96,8
1151,23,11
1153,23.04,5
1155,23.08,8
1157,23.12,6
1159,23.16,9
1161,23.2,11
1163,23.24,9
1165,23.28,7
1167,23.32,10
1169,23.36,7
1171,23.4,3
1173,23.44,7
1175,23.48,10
1177,23.52,10
1179,23.56,5
1181,23.6,7
1183,23.64,14
1185,23.68,4
1187,23.72,7
1189,23.76,10
1191,23.8,7
1193,23.84,8
1195,23.88,6
1197,23.92,3
1199,23.96,2
1201,24,5
1203,24.04,5
1205,24.08,6
1207,24.12,6
1209,24.16,4
1211,24.2,6
1213,24.24,10
1215,24.28,1
1217,24.32,8
1219,24.36,5
1221,24.4,3
1223,24.44,6
1225,24.48,7
1227,24.52,4
1229,24.56,5
1231,24.6,9
1233,24.64,5
1235,24.68,8
1237,24.72,10
1239,24.76,10
1241,24.8,21
1243,24.84,15
1245,24.88,25
1247,24.92,24
1249,24.96,24
1251,25,34
1253,25.04,32
1255,25.08,25
1257,25.12,31
1259,25.16,33
1261,25.2,39
1263,25.24,43
1265,25.28,40
1267,25.32,22
1269,25.36,33
1271,25.4,20
1273,25.44,16
1275,25.48,17
1277,25.52,8
1279,25.56,8
1281,25.6,5
1283,25.64,3
1285,25.68,6
1287,25.72,5
1289,25.76,6
1291,25.8,5
1293,25.84,5
1295,25.88,3
1297,25.92,3
1299,25.96,4
1301,26,10
1303,26.04,13
1305,26.08,6
1307,26.12,8
1309,26.16,9
1311,26.2,9
1313,26.24,5
1315,26.28,16
1317,26.32,3
1319,26.36,10
1321,26.4,10
1323,26.44,8
1325,26.48,4
1327,26.52,5
1329,26.56,6
1331,26.6,6
1333,26.64,2
1335,26.68,6
1337,26.72,4
1339,26.76,6
1341,26.8,5
1343,26.84,8
1345,26.88,4
1347,26.92,5
1349,26.96,9
1351,27,5
1353,27.04,9
1355,27.08,4
1357,27.12,8
1359,27.16,4
1361,27.2,3
1363,27.24,2
1365,27.28,6
1367,27.32,10
1369,27.36,10
1371,27.4,3
1373,27.44,7
1375,27.48,4
1377,27.52,7
1379,27.56,4
1381,27.6,5
1383,27.64,6
1385,27.68,3
1387,27.72,12
1389,27.76,5
1391,27.8,5
1393,27.84,1
1395,27.88,4
1397,27.92,7
1399,27.96,8
1401,28,1
1403,28.04,4
1405,28.08,6
1407,28.12,6
1409,28.16,8
1411,28.2,2
1413,28.24,6
1415,28.28,8
1417,28.32,8
1419,28.36,18
1421,28.4,8
1423,28.44,11
1425,28.48,9
1427,28.52,8
1429,28.56,12
1431,28.6,12
1433,28.64,12
1435,28.68,7
1437,28.72,11
1439,28.76,14
1441,28.8,4
1443,28.84,6
1445,28.88,5
1447,28.92,5
1449,28.96,9
1451,29,9
1453,29.04,9
1455,29.08,4
1457,29.12,4
1459,29.16,12
1461,29.2,8
1463,29.24,6
1465,29.28,10
1467,29.32,6
1469,29.36,10
1471,29.4,7
1473,29.44,7
1475,29.48,7
1477,29.52,4
1479,29.56,6
1481,29.6,3
1483,29.64,4
1485,29.68,10
1487,29.72,4
1489,29.76,6
1491,29.8,4
1493,29.84,3
1495,29.88,2
1497,29.92,7
1499,29.96,3
1501,30,3
1503,30.04,6
1505,30.08,4
1507,30.12,3
1509,30.16,4
1511,30.2,7
1513,30.24,5
1515,30.28,6
1517,30.32,10
1519,30.36,3
1521,30.4,7
1523,30.44,10
1525,30.48,4
1527,30.52,2
1529,30.56,4
1531,30.6,1
1533,30.64,4
1535,30.68,6
1537,30.72,4
1539,30.76,2
1541,30.8,4
1543,30.84,4
1545,30.88,8
1547,30.92,5
1549,30.96,2
1551,31,1
1553,31.04,5
1555,31.08,5
1557,31.12,6
1559,31.16,3
1561,31.2,9
1563,31.24,1
1565,31.28,7
1567,31.32,9
1569,31.36,3
1571,31.4,6
1573,31.44,4
1575,31.48,4
1577,31.52,7
1579,31.56,3
1581,31.6,5
1583,31.64,6
1585,31.68,3
1587,31.72,3
1589,31.76,11
1591,31.8,5
1593,31.84,4
1595,31.88,7
1597,31.92,6
1599,31.96,5
1601,32,4
1603,32.04,6
1605,32.08,3
1607,32.12,5
1609,32.16,5
1611,32.2,1
1613,32.24,7
1615,32.28,1
1617,32.32,4
1619,32.36,1
1621,32.4,5
1623,32.44,5
1625,32.48,8
1627,32.52,1
1629,32.56,2
1631,32.6,4
1633,32.64,3
1635,32.68,8
1637,32.72,3
1639,32.76,2
1641,32.8,7
1643,32.84,3
1645,32.88,2
1647,32.92,6
1649,32.96,4
1651,33,7
1653,33.04,5
1655,33.08,2
1657,33.12,2
1659,33.16,2
1661,33.2,2
1663,33.24,7
1665,33.28,3
1667,33.32,2
1669,33.36,5
1671,33.4,5
1673,33.44,1
1675,33.48,4
1677,33.52,2
1679,33.56,3
1681,33.6,6
1683,33.64,0
1685,33.68,2
1687,33.72,6
1689,33.76,3
1691,33.8,8
1693,33.84,5
1695,33.88,2
1697,33.92,0
1699,33.96,7
1701,34,3
1703,34.04,3
1705,34.08,2
1707,34.12,3
1709,34.16,2
1711,34.2,4
1713,34.24,7
1715,34.28,3
1717,34.32,4
1719,34.36,1
1721,34.4,4
1723,34.44,1
1725,34.48,3
1727,34.52,3
1729,34.56,1
1731,34.6,5
1733,34.64,3
1735,34.68,3
1737,34.72,2
1739,34.76,1
1741,34.8,4
1743,34.84,6
1745,34.88,4
1747,34.92,4
1749,34.96,4
1751,35,2
1753,35.04,2
1755,35.08,2
1757,35.12,0
1759,35.16,3
1761,35.2,0
1763,35.24,0
1765,35.28,3
1767,35.32,1
1769,35.36,0
1771,35.4,1
1773,35.44,2
1775,35.48,0
1777,35.52,1
1779,35.56,0
1781,35.6,2
1783,35.64,3
1785,35.68,4
1787,35.72,1
1789,35.76,3
1791,35.8,2
1793,35.84,1
1795,35.88,1
1797,35.92,0
1799,35.96,3
1801,36,2
1803,36.04,2
1805,36.08,0
1807,36.12,4
1809,36.16,2
1811,36.2,3
1813,36.24,2
1815,36.28,1
1817,36.32,4
1819,36.36,1
1821,36.4,3
1823,36.44,5
1825,36.48,5
1827,36.52,2
1829,36.56,0
1831,36.6,4
1833,36.64,2
1835,36.68,0
1837,36.72,0
1839,36.76,1
1841,36.8,3
1843,36.84,3
1845,36.88,0
1847,36.92,0
1849,36.96,2
1851,37,0
1853,37.04,2
1855,37.08,2
1857,37.12,0
1859,37.16,0
1861,37.2,0
1863,37.24,2
1865,37.28,1
1867,37.32,1
1869,37.36,1
1871,37.4,0
1873,37.44,0
1875,37.48,2
1877,37.52,1
1879,37.56,0
1881,37.6,0
1883,37.64,1
1885,37.68,0
1887,37.72,1
1889,37.76,1
1891,37.8,2
1893,37.84,4
1895,37.88,1
1897,37.92,0
1899,37.96,0
1901,38,0
1903,38.04,0
1905,38.08,1
1907,38.12,1
1909,38.16,0
1911,38.2,1
1913,38.24,0
1915,38.28,0
1917,38.32,0
1919,38.36,0
1921,38.4,1
1923,38.44,0
1925,38.48,2
1927,38.52,0
1929,38.56,0
1931,38.6,0
1933,38.64,0
1935,38.68,1
1937,38.72,0
1939,38.76,1
1941,38.8,0
1943,38.84,0
1945,38.88,1
1947,38.92,1
1949,38.96,0
1951,39,0
1953,39.04,0
1955,39.08,0
1957,39.12,0
1959,39.16,0
1961,39.2,1
1963,39.24,0
1965,39.28,0
1967,39.32,1
1969,39.36,0
1971,39.4,0
1973,39.44,0
1975,39.48,0
1977,39.52,0
1979,39.56,0
1981,39.6,0
1983,39.64,0
1985,39.68,0
1987,39.72,0
1989,39.76,0
1991,39.8,0
1993,39.84,0
1995,39.88,0
1997,39.92,0
1999,39.96,0
2001,40,0
2003,40.04,0
2005,40.08,0
2007,40.12,0
2009,40.16,0
2011,40.2,0
2013,40.24,0
2015,40.28,0
2017,40.32,0
2019,40.36,1
2021,40.4,0
2023,40.44,0
2025,40.48,0
2027,40.52,0
2029,40.56,0
2031,40.6,0
2033,40.64,0
2035,40.68,0
2037,40.72,0
2039,40.76,0
2041,40.8,0
2043,40.84,0
2045,40.88,0
2047,40.92,0
2048,40.94,0