File: JAG XRF Scan 2 Tails.csv
Bruker AXS HMP Instrument Tools Complete CSV
FileName,C:\Users\skel2534\Desktop\Sydney Grammar\Jack Glass\JAG XRF Scan 2 Tails.pdz
SerialString,
TubeTargetElement,45
NumberOfSpectra,1
SampleID,
AcquisitionDateTime,11/05/2021 11:50:25 AM
TotalElapsedTimeInSeconds,32
AnodeTakeOffAngle,53
SampleIncidenceAngle,45
BeThicknessInMicroMeters,75
SampleTakeOffAngle,65
SpotSizeUsed,-1
XrayVoltageInkV,40,
XrayFilamentCurrentInMicroAmps,3.2,
RawCounts,272715,
ValidCounts,206250,
eVPerChannel,20,
StartingKeV,0,
ZeroOffsetInKeV,0,
StartingChannel,0,
NumberOfChannels,2048,
CountsPerSecond,8797.258,
XilinxFirmwareVersion,808,
IlluminationID,,
Filter1ElementAtomicNum,22,
Filter1Thickness,25,
Filter2ElementAtomicNum,13,
Filter2Thickness,300,
Filter3ElementAtomicNum,0,
Filter3Thickness,0,
AcquisitionDateTime,11/05/2021 11:50:25 AM,
LiveTimeInSeconds,25.026,
DeadTimeInSeconds,5.943001,
ResetTimeInSeconds,0.136,
DetectorTempInC,-40.5,
AmbientTempInF,94.4,
NosePressureInMilliBars,,
NoseTemperatureInC,,
ActiveTimeInSeconds,31,
PacketTimeInSeconds,31.136,
CommunicationTimeInSeconds,0.8640003,
ElapsedClockTimeInSeconds,32,
Spectrum:ChannelNumber,ChannelStartInKeV,ChannelCount
1,0,8
3,0.04,3
5,0.08,1
7,0.12,0
9,0.16,2
11,0.2,0
13,0.24,0
15,0.28,0
17,0.32,0
19,0.36,0
21,0.4,0
23,0.44,0
25,0.48,3
27,0.52,1
29,0.56,1
31,0.6,5
33,0.64,8
35,0.68,9
37,0.72,6
39,0.76,8
41,0.8,9
43,0.84,10
45,0.88,8
47,0.92,6
49,0.96,11
51,1,5
53,1.04,9
55,1.08,11
57,1.12,9
59,1.16,9
61,1.2,6
63,1.24,6
65,1.28,5
67,1.32,7
69,1.36,14
71,1.4,16
73,1.44,11
75,1.48,6
77,1.52,6
79,1.56,12
81,1.6,8
83,1.64,11
85,1.68,5
87,1.72,3
89,1.76,9
91,1.8,9
93,1.84,4
95,1.88,4
97,1.92,5
99,1.96,4
101,2,4
103,2.04,11
105,2.08,5
107,2.12,3
109,2.16,3
111,2.2,7
113,2.24,6
115,2.28,8
117,2.32,8
119,2.36,16
121,2.4,20
123,2.44,15
125,2.48,14
127,2.52,18
129,2.56,7
131,2.6,18
133,2.64,21
135,2.68,14
137,2.72,10
139,2.76,10
141,2.8,5
143,2.84,7
145,2.88,5
147,2.92,10
149,2.96,10
151,3,12
153,3.04,11
155,3.08,4
157,3.12,10
159,3.16,4
161,3.2,3
163,3.24,2
165,3.28,8
167,3.32,7
169,3.36,6
171,3.4,5
173,3.44,4
175,3.48,2
177,3.52,4
179,3.56,7
181,3.6,4
183,3.64,2
185,3.68,3
187,3.72,7
189,3.76,4
191,3.8,9
193,3.84,3
195,3.88,2
197,3.92,4
199,3.96,4
201,4,0
203,4.04,1
205,4.08,1
207,4.12,1
209,4.16,1
211,4.2,6
213,4.24,3
215,4.28,0
217,4.32,3
219,4.36,1
221,4.4,5
223,4.44,2
225,4.48,3
227,4.52,2
229,4.56,1
231,4.6,5
233,4.64,3
235,4.68,5
237,4.72,2
239,4.76,2
241,4.8,1
243,4.84,4
245,4.88,4
247,4.92,7
249,4.96,5
251,5,10
253,5.04,9
255,5.08,19
257,5.12,7
259,5.16,7
261,5.2,3
263,5.24,2
265,5.28,8
267,5.32,6
269,5.36,2
271,5.4,1
273,5.44,2
275,5.48,6
277,5.52,3
279,5.56,6
281,5.6,8
283,5.64,5
285,5.68,5
287,5.72,5
289,5.76,7
291,5.8,6
293,5.84,8
295,5.88,3
297,5.92,1
299,5.96,3
301,6,2
303,6.04,2
305,6.08,12
307,6.12,10
309,6.16,17
311,6.2,26
313,6.24,27
315,6.28,29
317,6.32,27
319,6.36,34
321,6.4,29
323,6.44,23
325,6.48,19
327,6.52,16
329,6.56,15
331,6.6,11
333,6.64,7
335,6.68,7
337,6.72,9
339,6.76,9
341,6.8,8
343,6.84,10
345,6.88,8
347,6.92,11
349,6.96,9
351,7,15
353,7.04,7
355,7.08,22
357,7.12,15
359,7.16,19
361,7.2,7
363,7.24,14
365,7.28,4
367,7.32,21
369,7.36,20
371,7.4,21
373,7.44,25
375,7.48,32
377,7.52,34
379,7.56,33
381,7.6,35
383,7.64,41
385,7.68,51
387,7.72,96
389,7.76,167
391,7.8,497
393,7.84,1322
395,7.88,2759
397,7.92,5348
399,7.96,8660
401,8,11329
403,8.04,12752
405,8.08,11699
407,8.12,8949
409,8.16,6092
411,8.2,3303
413,8.24,1664
415,8.28,659
417,8.32,269
419,8.36,116
421,8.4,51
423,8.44,44
425,8.48,43
427,8.52,45
429,8.56,52
431,8.6,82
433,8.64,101
435,8.68,224
437,8.72,377
439,8.76,717
441,8.8,1195
443,8.84,1715
445,8.88,2012
447,8.92,1975
449,8.96,1763
451,9,1258
453,9.04,837
455,9.08,465
457,9.12,182
459,9.16,98
461,9.2,45
463,9.24,36
465,9.28,19
467,9.32,11
469,9.36,11
471,9.4,6
473,9.44,6
475,9.48,6
477,9.52,2
479,9.56,4
481,9.6,0
483,9.64,2
485,9.68,1
487,9.72,4
489,9.76,3
491,9.8,0
493,9.84,1
495,9.88,1
497,9.92,3
499,9.96,2
501,10,5
503,10.04,2
505,10.08,1
507,10.12,3
509,10.16,2
511,10.2,8
513,10.24,9
515,10.28,16
517,10.32,37
519,10.36,86
521,10.4,139
523,10.44,191
525,10.48,288
527,10.52,327
529,10.56,321
531,10.6,263
533,10.64,210
535,10.68,175
537,10.72,85
539,10.76,45
541,10.8,22
543,10.84,14
545,10.88,8
547,10.92,8
549,10.96,18
551,11,32
553,11.04,62
555,11.08,124
557,11.12,185
559,11.16,226
561,11.2,272
563,11.24,246
565,11.28,196
567,11.32,141
569,11.36,95
571,11.4,51
573,11.44,25
575,11.48,22
577,11.52,12
579,11.56,3
581,11.6,8
583,11.64,3
585,11.68,6
587,11.72,5
589,11.76,6
591,11.8,3
593,11.84,9
595,11.88,8
597,11.92,10
599,11.96,7
601,12,7
603,12.04,9
605,12.08,9
607,12.12,16
609,12.16,22
611,12.2,21
613,12.24,23
615,12.28,28
617,12.32,40
619,12.36,43
621,12.4,58
623,12.44,101
625,12.48,156
627,12.52,196
629,12.56,249
631,12.6,284
633,12.64,283
635,12.68,262
637,12.72,173
639,12.76,129
641,12.8,77
643,12.84,55
645,12.88,31
647,12.92,26
649,12.96,20
651,13,23
653,13.04,18
655,13.08,11
657,13.12,14
659,13.16,12
661,13.2,9
663,13.24,6
665,13.28,2
667,13.32,6
669,13.36,4
671,13.4,7
673,13.44,4
675,13.48,9
677,13.52,10
679,13.56,4
681,13.6,3
683,13.64,7
685,13.68,4
687,13.72,2
689,13.76,5
691,13.8,4
693,13.84,5
695,13.88,6
697,13.92,7
699,13.96,7
701,14,8
703,14.04,6
705,14.08,2
707,14.12,4
709,14.16,5
711,14.2,9
713,14.24,3
715,14.28,6
717,14.32,4
719,14.36,6
721,14.4,11
723,14.44,4
725,14.48,2
727,14.52,12
729,14.56,11
731,14.6,15
733,14.64,19
735,14.68,28
737,14.72,42
739,14.76,35
741,14.8,35
743,14.84,28
745,14.88,34
747,14.92,11
749,14.96,9
751,15,15
753,15.04,18
755,15.08,18
757,15.12,17
759,15.16,23
761,15.2,23
763,15.24,18
765,15.28,13
767,15.32,16
769,15.36,9
771,15.4,9
773,15.44,10
775,15.48,9
777,15.52,7
779,15.56,8
781,15.6,9
783,15.64,10
785,15.68,10
787,15.72,9
789,15.76,10
791,15.8,15
793,15.84,15
795,15.88,19
797,15.92,25
799,15.96,45
801,16,70
803,16.04,71
805,16.08,74
807,16.12,90
809,16.16,56
811,16.2,55
813,16.24,41
815,16.28,28
817,16.32,17
819,16.36,7
821,16.4,6
823,16.44,6
825,16.48,12
827,16.52,11
829,16.56,8
831,16.6,10
833,16.64,7
835,16.68,7
837,16.72,8
839,16.76,12
841,16.8,23
843,16.84,20
845,16.88,26
847,16.92,33
849,16.96,24
851,17,29
853,17.04,15
855,17.08,18
857,17.12,14
859,17.16,13
861,17.2,7
863,17.24,4
865,17.28,7
867,17.32,14
869,17.36,10
871,17.4,8
873,17.44,5
875,17.48,12
877,17.52,6
879,17.56,9
881,17.6,7
883,17.64,10
885,17.68,10
887,17.72,8
889,17.76,4
891,17.8,8
893,17.84,6
895,17.88,8
897,17.92,10
899,17.96,11
901,18,9
903,18.04,6
905,18.08,4
907,18.12,12
909,18.16,8
911,18.2,9
913,18.24,10
915,18.28,12
917,18.32,7
919,18.36,7
921,18.4,9
923,18.44,10
925,18.48,15
927,18.52,15
929,18.56,14
931,18.6,15
933,18.64,18
935,18.68,12
937,18.72,20
939,18.76,12
941,18.8,17
943,18.84,15
945,18.88,16
947,18.92,18
949,18.96,18
951,19,19
953,19.04,21
955,19.08,23
957,19.12,18
959,19.16,21
961,19.2,23
963,19.24,22
965,19.28,22
967,19.32,19
969,19.36,10
971,19.4,21
973,19.44,17
975,19.48,15
977,19.52,16
979,19.56,12
981,19.6,7
983,19.64,15
985,19.68,9
987,19.72,12
989,19.76,12
991,19.8,17
993,19.84,18
995,19.88,20
997,19.92,31
999,19.96,18
1001,20,24
1003,20.04,44
1005,20.08,31
1007,20.12,47
1009,20.16,57
1011,20.2,38
1013,20.24,37
1015,20.28,36
1017,20.32,25
1019,20.36,15
1021,20.4,17
1023,20.44,9
1025,20.48,8
1027,20.52,6
1029,20.56,15
1031,20.6,13
1033,20.64,12
1035,20.68,13
1037,20.72,11
1039,20.76,9
1041,20.8,11
1043,20.84,11
1045,20.88,7
1047,20.92,6
1049,20.96,7
1051,21,4
1053,21.04,10
1055,21.08,18
1057,21.12,9
1059,21.16,11
1061,21.2,8
1063,21.24,14
1065,21.28,13
1067,21.32,12
1069,21.36,9
1071,21.4,10
1073,21.44,5
1075,21.48,6
1077,21.52,12
1079,21.56,11
1081,21.6,10
1083,21.64,9
1085,21.68,6
1087,21.72,13
1089,21.76,21
1091,21.8,15
1093,21.84,15
1095,21.88,20
1097,21.92,24
1099,21.96,32
1101,22,41
1103,22.04,36
1105,22.08,34
1107,22.12,45
1109,22.16,40
1111,22.2,37
1113,22.24,38
1115,22.28,28
1117,22.32,25
1119,22.36,17
1121,22.4,15
1123,22.44,9
1125,22.48,22
1127,22.52,15
1129,22.56,14
1131,22.6,16
1133,22.64,13
1135,22.68,12
1137,22.72,17
1139,22.76,15
1141,22.8,8
1143,22.84,14
1145,22.88,18
1147,22.92,9
1149,22.96,9
1151,23,8
1153,23.04,7
1155,23.08,11
1157,23.12,8
1159,23.16,13
1161,23.2,12
1163,23.24,5
1165,23.28,5
1167,23.32,7
1169,23.36,4
1171,23.4,12
1173,23.44,4
1175,23.48,6
1177,23.52,3
1179,23.56,5
1181,23.6,7
1183,23.64,6
1185,23.68,2
1187,23.72,11
1189,23.76,7
1191,23.8,8
1193,23.84,6
1195,23.88,7
1197,23.92,2
1199,23.96,7
1201,24,14
1203,24.04,6
1205,24.08,6
1207,24.12,10
1209,24.16,10
1211,24.2,13
1213,24.24,6
1215,24.28,8
1217,24.32,9
1219,24.36,6
1221,24.4,3
1223,24.44,4
1225,24.48,7
1227,24.52,8
1229,24.56,10
1231,24.6,5
1233,24.64,7
1235,24.68,6
1237,24.72,8
1239,24.76,11
1241,24.8,21
1243,24.84,15
1245,24.88,15
1247,24.92,31
1249,24.96,31
1251,25,23
1253,25.04,27
1255,25.08,33
1257,25.12,28
1259,25.16,37
1261,25.2,33
1263,25.24,28
1265,25.28,35
1267,25.32,25
1269,25.36,27
1271,25.4,18
1273,25.44,19
1275,25.48,19
1277,25.52,11
1279,25.56,12
1281,25.6,13
1283,25.64,6
1285,25.68,5
1287,25.72,5
1289,25.76,3
1291,25.8,6
1293,25.84,5
1295,25.88,7
1297,25.92,3
1299,25.96,4
1301,26,4
1303,26.04,8
1305,26.08,6
1307,26.12,4
1309,26.16,5
1311,26.2,10
1313,26.24,8
1315,26.28,5
1317,26.32,7
1319,26.36,4
1321,26.4,9
1323,26.44,6
1325,26.48,12
1327,26.52,7
1329,26.56,5
1331,26.6,7
1333,26.64,5
1335,26.68,7
1337,26.72,5
1339,26.76,2
1341,26.8,2
1343,26.84,8
1345,26.88,5
1347,26.92,7
1349,26.96,1
1351,27,8
1353,27.04,7
1355,27.08,11
1357,27.12,2
1359,27.16,9
1361,27.2,5
1363,27.24,9
1365,27.28,8
1367,27.32,10
1369,27.36,5
1371,27.4,6
1373,27.44,6
1375,27.48,4
1377,27.52,5
1379,27.56,2
1381,27.6,4
1383,27.64,5
1385,27.68,2
1387,27.72,2
1389,27.76,11
1391,27.8,5
1393,27.84,5
1395,27.88,3
1397,27.92,1
1399,27.96,6
1401,28,3
1403,28.04,7
1405,28.08,3
1407,28.12,4
1409,28.16,7
1411,28.2,10
1413,28.24,9
1415,28.28,8
1417,28.32,12
1419,28.36,12
1421,28.4,11
1423,28.44,15
1425,28.48,9
1427,28.52,8
1429,28.56,4
1431,28.6,6
1433,28.64,7
1435,28.68,6
1437,28.72,5
1439,28.76,7
1441,28.8,10
1443,28.84,5
1445,28.88,4
1447,28.92,5
1449,28.96,2
1451,29,7
1453,29.04,7
1455,29.08,6
1457,29.12,9
1459,29.16,8
1461,29.2,4
1463,29.24,5
1465,29.28,7
1467,29.32,5
1469,29.36,8
1471,29.4,10
1473,29.44,7
1475,29.48,7
1477,29.52,7
1479,29.56,7
1481,29.6,3
1483,29.64,2
1485,29.68,4
1487,29.72,4
1489,29.76,4
1491,29.8,7
1493,29.84,6
1495,29.88,3
1497,29.92,8
1499,29.96,3
1501,30,4
1503,30.04,7
1505,30.08,3
1507,30.12,10
1509,30.16,3
1511,30.2,6
1513,30.24,6
1515,30.28,1
1517,30.32,3
1519,30.36,2
1521,30.4,6
1523,30.44,3
1525,30.48,6
1527,30.52,1
1529,30.56,7
1531,30.6,5
1533,30.64,4
1535,30.68,4
1537,30.72,8
1539,30.76,8
1541,30.8,2
1543,30.84,2
1545,30.88,2
1547,30.92,3
1549,30.96,2
1551,31,4
1553,31.04,2
1555,31.08,2
1557,31.12,4
1559,31.16,4
1561,31.2,4
1563,31.24,4
1565,31.28,2
1567,31.32,2
1569,31.36,6
1571,31.4,8
1573,31.44,2
1575,31.48,4
1577,31.52,5
1579,31.56,4
1581,31.6,1
1583,31.64,5
1585,31.68,3
1587,31.72,2
1589,31.76,5
1591,31.8,2
1593,31.84,3
1595,31.88,2
1597,31.92,2
1599,31.96,4
1601,32,4
1603,32.04,3
1605,32.08,4
1607,32.12,3
1609,32.16,5
1611,32.2,6
1613,32.24,3
1615,32.28,2
1617,32.32,4
1619,32.36,5
1621,32.4,8
1623,32.44,4
1625,32.48,5
1627,32.52,6
1629,32.56,2
1631,32.6,0
1633,32.64,1
1635,32.68,1
1637,32.72,4
1639,32.76,3
1641,32.8,1
1643,32.84,5
1645,32.88,3
1647,32.92,4
1649,32.96,6
1651,33,3
1653,33.04,4
1655,33.08,0
1657,33.12,1
1659,33.16,3
1661,33.2,5
1663,33.24,3
1665,33.28,5
1667,33.32,6
1669,33.36,4
1671,33.4,4
1673,33.44,3
1675,33.48,3
1677,33.52,5
1679,33.56,1
1681,33.6,5
1683,33.64,0
1685,33.68,3
1687,33.72,2
1689,33.76,7
1691,33.8,3
1693,33.84,1
1695,33.88,2
1697,33.92,3
1699,33.96,2
1701,34,1
1703,34.04,1
1705,34.08,1
1707,34.12,2
1709,34.16,0
1711,34.2,1
1713,34.24,2
1715,34.28,2
1717,34.32,2
1719,34.36,4
1721,34.4,1
1723,34.44,5
1725,34.48,2
1727,34.52,3
1729,34.56,1
1731,34.6,4
1733,34.64,2
1735,34.68,1
1737,34.72,1
1739,34.76,2
1741,34.8,2
1743,34.84,0
1745,34.88,3
1747,34.92,1
1749,34.96,1
1751,35,0
1753,35.04,2
1755,35.08,2
1757,35.12,3
1759,35.16,2
1761,35.2,5
1763,35.24,0
1765,35.28,2
1767,35.32,2
1769,35.36,3
1771,35.4,2
1773,35.44,4
1775,35.48,5
1777,35.52,2
1779,35.56,3
1781,35.6,4
1783,35.64,3
1785,35.68,2
1787,35.72,1
1789,35.76,1
1791,35.8,0
1793,35.84,3
1795,35.88,2
1797,35.92,1
1799,35.96,3
1801,36,2
1803,36.04,3
1805,36.08,0
1807,36.12,1
1809,36.16,1
1811,36.2,2
1813,36.24,3
1815,36.28,1
1817,36.32,4
1819,36.36,1
1821,36.4,1
1823,36.44,2
1825,36.48,1
1827,36.52,3
1829,36.56,2
1831,36.6,3
1833,36.64,3
1835,36.68,1
1837,36.72,1
1839,36.76,1
1841,36.8,2
1843,36.84,0
1845,36.88,1
1847,36.92,1
1849,36.96,1
1851,37,2
1853,37.04,0
1855,37.08,0
1857,37.12,0
1859,37.16,0
1861,37.2,0
1863,37.24,3
1865,37.28,1
1867,37.32,1
1869,37.36,1
1871,37.4,2
1873,37.44,0
1875,37.48,0
1877,37.52,0
1879,37.56,0
1881,37.6,1
1883,37.64,1
1885,37.68,1
1887,37.72,0
1889,37.76,2
1891,37.8,0
1893,37.84,1
1895,37.88,2
1897,37.92,0
1899,37.96,0
1901,38,0
1903,38.04,0
1905,38.08,1
1907,38.12,0
1909,38.16,1
1911,38.2,0
1913,38.24,0
1915,38.28,0
1917,38.32,1
1919,38.36,1
1921,38.4,0
1923,38.44,2
1925,38.48,1
1927,38.52,1
1929,38.56,0
1931,38.6,0
1933,38.64,2
1935,38.68,0
1937,38.72,1
1939,38.76,0
1941,38.8,0
1943,38.84,0
1945,38.88,0
1947,38.92,1
1949,38.96,0
1951,39,1
1953,39.04,1
1955,39.08,0
1957,39.12,0
1959,39.16,2
1961,39.2,0
1963,39.24,1
1965,39.28,0
1967,39.32,0
1969,39.36,0
1971,39.4,0
1973,39.44,0
1975,39.48,0
1977,39.52,1
1979,39.56,0
1981,39.6,0
1983,39.64,0
1985,39.68,0
1987,39.72,0
1989,39.76,0
1991,39.8,0
1993,39.84,0
1995,39.88,0
1997,39.92,0
1999,39.96,0
2001,40,0
2003,40.04,0
2005,40.08,0
2007,40.12,0
2009,40.16,0
2011,40.2,1
2013,40.24,0
2015,40.28,0
2017,40.32,0
2019,40.36,0
2021,40.4,0
2023,40.44,0
2025,40.48,0
2027,40.52,0
2029,40.56,0
2031,40.6,0
2033,40.64,0
2035,40.68,0
2037,40.72,0
2039,40.76,0
2041,40.8,0
2043,40.84,0
2045,40.88,0
2047,40.92,0
2048,40.94,2