File: JAG XRF Scan 3 Heads.csv
Bruker AXS HMP Instrument Tools Complete CSV
FileName,C:\Users\skel2534\Desktop\Sydney Grammar\Jack Glass\JAG XRF Scan 3 Heads.pdz
SerialString,
TubeTargetElement,45
NumberOfSpectra,1
SampleID,
AcquisitionDateTime,11/05/2021 11:53:55 AM
TotalElapsedTimeInSeconds,32
AnodeTakeOffAngle,53
SampleIncidenceAngle,45
BeThicknessInMicroMeters,75
SampleTakeOffAngle,65
SpotSizeUsed,-1
XrayVoltageInkV,40,
XrayFilamentCurrentInMicroAmps,3.2,
RawCounts,273549,
ValidCounts,207299,
eVPerChannel,20,
StartingKeV,0,
ZeroOffsetInKeV,0,
StartingChannel,0,
NumberOfChannels,2048,
CountsPerSecond,8824.161,
XilinxFirmwareVersion,808,
IlluminationID,,
Filter1ElementAtomicNum,22,
Filter1Thickness,25,
Filter2ElementAtomicNum,13,
Filter2Thickness,300,
Filter3ElementAtomicNum,0,
Filter3Thickness,0,
AcquisitionDateTime,11/05/2021 11:53:55 AM,
LiveTimeInSeconds,25.005,
DeadTimeInSeconds,5.964,
ResetTimeInSeconds,0.144,
DetectorTempInC,-40.5,
AmbientTempInF,94.4,
NosePressureInMilliBars,,
NoseTemperatureInC,,
ActiveTimeInSeconds,31,
PacketTimeInSeconds,31.144,
CommunicationTimeInSeconds,0.8560009,
ElapsedClockTimeInSeconds,32,
Spectrum:ChannelNumber,ChannelStartInKeV,ChannelCount
1,0,1
3,0.04,2
5,0.08,2
7,0.12,1
9,0.16,1
11,0.2,1
13,0.24,0
15,0.28,0
17,0.32,0
19,0.36,0
21,0.4,0
23,0.44,1
25,0.48,0
27,0.52,2
29,0.56,3
31,0.6,6
33,0.64,5
35,0.68,6
37,0.72,11
39,0.76,8
41,0.8,9
43,0.84,5
45,0.88,9
47,0.92,6
49,0.96,9
51,1,13
53,1.04,9
55,1.08,9
57,1.12,5
59,1.16,6
61,1.2,6
63,1.24,13
65,1.28,9
67,1.32,7
69,1.36,9
71,1.4,7
73,1.44,16
75,1.48,17
77,1.52,9
79,1.56,8
81,1.6,7
83,1.64,10
85,1.68,13
87,1.72,10
89,1.76,4
91,1.8,8
93,1.84,8
95,1.88,5
97,1.92,2
99,1.96,5
101,2,7
103,2.04,12
105,2.08,11
107,2.12,5
109,2.16,3
111,2.2,9
113,2.24,4
115,2.28,6
117,2.32,7
119,2.36,11
121,2.4,7
123,2.44,9
125,2.48,10
127,2.52,13
129,2.56,9
131,2.6,15
133,2.64,11
135,2.68,9
137,2.72,13
139,2.76,5
141,2.8,8
143,2.84,3
145,2.88,3
147,2.92,12
149,2.96,13
151,3,8
153,3.04,10
155,3.08,3
157,3.12,4
159,3.16,7
161,3.2,5
163,3.24,1
165,3.28,5
167,3.32,11
169,3.36,4
171,3.4,4
173,3.44,14
175,3.48,12
177,3.52,7
179,3.56,10
181,3.6,11
183,3.64,13
185,3.68,13
187,3.72,8
189,3.76,7
191,3.8,10
193,3.84,10
195,3.88,4
197,3.92,3
199,3.96,8
201,4,5
203,4.04,3
205,4.08,7
207,4.12,0
209,4.16,2
211,4.2,6
213,4.24,7
215,4.28,4
217,4.32,2
219,4.36,4
221,4.4,4
223,4.44,5
225,4.48,4
227,4.52,1
229,4.56,3
231,4.6,2
233,4.64,2
235,4.68,5
237,4.72,3
239,4.76,3
241,4.8,5
243,4.84,7
245,4.88,4
247,4.92,5
249,4.96,13
251,5,4
253,5.04,10
255,5.08,13
257,5.12,5
259,5.16,6
261,5.2,8
263,5.24,6
265,5.28,4
267,5.32,1
269,5.36,5
271,5.4,3
273,5.44,3
275,5.48,2
277,5.52,6
279,5.56,5
281,5.6,2
283,5.64,6
285,5.68,7
287,5.72,3
289,5.76,3
291,5.8,7
293,5.84,5
295,5.88,5
297,5.92,5
299,5.96,4
301,6,5
303,6.04,2
305,6.08,6
307,6.12,11
309,6.16,11
311,6.2,27
313,6.24,33
315,6.28,22
317,6.32,39
319,6.36,40
321,6.4,34
323,6.44,26
325,6.48,14
327,6.52,15
329,6.56,13
331,6.6,11
333,6.64,15
335,6.68,9
337,6.72,8
339,6.76,5
341,6.8,10
343,6.84,12
345,6.88,8
347,6.92,16
349,6.96,17
351,7,17
353,7.04,15
355,7.08,13
357,7.12,6
359,7.16,12
361,7.2,15
363,7.24,11
365,7.28,14
367,7.32,18
369,7.36,13
371,7.4,30
373,7.44,23
375,7.48,29
377,7.52,31
379,7.56,33
381,7.6,32
383,7.64,32
385,7.68,60
387,7.72,62
389,7.76,193
391,7.8,503
393,7.84,1282
395,7.88,2874
397,7.92,5364
399,7.96,8611
401,8,11512
403,8.04,12755
405,8.08,11868
407,8.12,9194
409,8.16,6084
411,8.2,3305
413,8.24,1606
415,8.28,711
417,8.32,274
419,8.36,125
421,8.4,62
423,8.44,63
425,8.48,50
427,8.52,50
429,8.56,46
431,8.6,76
433,8.64,117
435,8.68,189
437,8.72,362
439,8.76,664
441,8.8,1188
443,8.84,1611
445,8.88,1989
447,8.92,2035
449,8.96,1829
451,9,1314
453,9.04,802
455,9.08,424
457,9.12,211
459,9.16,74
461,9.2,47
463,9.24,14
465,9.28,14
467,9.32,7
469,9.36,3
471,9.4,3
473,9.44,5
475,9.48,4
477,9.52,2
479,9.56,5
481,9.6,3
483,9.64,1
485,9.68,5
487,9.72,4
489,9.76,3
491,9.8,1
493,9.84,1
495,9.88,3
497,9.92,3
499,9.96,3
501,10,2
503,10.04,4
505,10.08,2
507,10.12,1
509,10.16,4
511,10.2,3
513,10.24,10
515,10.28,15
517,10.32,32
519,10.36,69
521,10.4,98
523,10.44,142
525,10.48,220
527,10.52,270
529,10.56,274
531,10.6,249
533,10.64,190
535,10.68,147
537,10.72,82
539,10.76,39
541,10.8,22
543,10.84,15
545,10.88,16
547,10.92,9
549,10.96,21
551,11,28
553,11.04,71
555,11.08,118
557,11.12,206
559,11.16,207
561,11.2,207
563,11.24,220
565,11.28,192
567,11.32,126
569,11.36,99
571,11.4,64
573,11.44,31
575,11.48,17
577,11.52,10
579,11.56,6
581,11.6,7
583,11.64,8
585,11.68,9
587,11.72,2
589,11.76,9
591,11.8,9
593,11.84,3
595,11.88,6
597,11.92,7
599,11.96,4
601,12,9
603,12.04,9
605,12.08,7
607,12.12,11
609,12.16,14
611,12.2,9
613,12.24,18
615,12.28,25
617,12.32,35
619,12.36,38
621,12.4,64
623,12.44,101
625,12.48,131
627,12.52,173
629,12.56,212
631,12.6,249
633,12.64,243
635,12.68,185
637,12.72,144
639,12.76,85
641,12.8,66
643,12.84,45
645,12.88,25
647,12.92,27
649,12.96,17
651,13,23
653,13.04,18
655,13.08,12
657,13.12,3
659,13.16,9
661,13.2,4
663,13.24,8
665,13.28,6
667,13.32,4
669,13.36,4
671,13.4,5
673,13.44,5
675,13.48,2
677,13.52,4
679,13.56,6
681,13.6,1
683,13.64,4
685,13.68,2
687,13.72,2
689,13.76,4
691,13.8,2
693,13.84,4
695,13.88,5
697,13.92,5
699,13.96,5
701,14,4
703,14.04,5
705,14.08,5
707,14.12,5
709,14.16,4
711,14.2,4
713,14.24,4
715,14.28,5
717,14.32,7
719,14.36,4
721,14.4,7
723,14.44,10
725,14.48,5
727,14.52,15
729,14.56,14
731,14.6,21
733,14.64,32
735,14.68,26
737,14.72,31
739,14.76,34
741,14.8,40
743,14.84,34
745,14.88,25
747,14.92,31
749,14.96,12
751,15,17
753,15.04,14
755,15.08,18
757,15.12,12
759,15.16,15
761,15.2,22
763,15.24,7
765,15.28,10
767,15.32,9
769,15.36,8
771,15.4,7
773,15.44,7
775,15.48,10
777,15.52,4
779,15.56,8
781,15.6,6
783,15.64,9
785,15.68,6
787,15.72,7
789,15.76,7
791,15.8,15
793,15.84,15
795,15.88,24
797,15.92,30
799,15.96,53
801,16,54
803,16.04,70
805,16.08,72
807,16.12,82
809,16.16,66
811,16.2,48
813,16.24,36
815,16.28,22
817,16.32,17
819,16.36,12
821,16.4,10
823,16.44,6
825,16.48,12
827,16.52,3
829,16.56,6
831,16.6,13
833,16.64,8
835,16.68,16
837,16.72,12
839,16.76,8
841,16.8,22
843,16.84,24
845,16.88,30
847,16.92,34
849,16.96,25
851,17,38
853,17.04,27
855,17.08,19
857,17.12,13
859,17.16,13
861,17.2,9
863,17.24,11
865,17.28,5
867,17.32,7
869,17.36,8
871,17.4,11
873,17.44,8
875,17.48,6
877,17.52,5
879,17.56,6
881,17.6,9
883,17.64,8
885,17.68,7
887,17.72,7
889,17.76,7
891,17.8,8
893,17.84,4
895,17.88,5
897,17.92,11
899,17.96,8
901,18,7
903,18.04,5
905,18.08,7
907,18.12,8
909,18.16,10
911,18.2,11
913,18.24,10
915,18.28,7
917,18.32,6
919,18.36,5
921,18.4,17
923,18.44,10
925,18.48,17
927,18.52,19
929,18.56,8
931,18.6,18
933,18.64,14
935,18.68,15
937,18.72,12
939,18.76,18
941,18.8,15
943,18.84,15
945,18.88,20
947,18.92,8
949,18.96,17
951,19,18
953,19.04,24
955,19.08,18
957,19.12,10
959,19.16,25
961,19.2,20
963,19.24,10
965,19.28,21
967,19.32,27
969,19.36,18
971,19.4,12
973,19.44,20
975,19.48,11
977,19.52,23
979,19.56,8
981,19.6,16
983,19.64,13
985,19.68,13
987,19.72,20
989,19.76,19
991,19.8,15
993,19.84,14
995,19.88,21
997,19.92,32
999,19.96,31
1001,20,29
1003,20.04,32
1005,20.08,36
1007,20.12,49
1009,20.16,47
1011,20.2,61
1013,20.24,41
1015,20.28,31
1017,20.32,30
1019,20.36,28
1021,20.4,19
1023,20.44,19
1025,20.48,13
1027,20.52,8
1029,20.56,5
1031,20.6,14
1033,20.64,7
1035,20.68,17
1037,20.72,12
1039,20.76,9
1041,20.8,9
1043,20.84,10
1045,20.88,8
1047,20.92,12
1049,20.96,16
1051,21,9
1053,21.04,6
1055,21.08,5
1057,21.12,7
1059,21.16,10
1061,21.2,8
1063,21.24,9
1065,21.28,13
1067,21.32,13
1069,21.36,6
1071,21.4,5
1073,21.44,7
1075,21.48,11
1077,21.52,7
1079,21.56,9
1081,21.6,10
1083,21.64,9
1085,21.68,15
1087,21.72,10
1089,21.76,8
1091,21.8,17
1093,21.84,21
1095,21.88,25
1097,21.92,29
1099,21.96,42
1101,22,50
1103,22.04,60
1105,22.08,82
1107,22.12,54
1109,22.16,63
1111,22.2,59
1113,22.24,57
1115,22.28,39
1117,22.32,26
1119,22.36,20
1121,22.4,17
1123,22.44,5
1125,22.48,11
1127,22.52,9
1129,22.56,15
1131,22.6,10
1133,22.64,13
1135,22.68,18
1137,22.72,14
1139,22.76,9
1141,22.8,12
1143,22.84,17
1145,22.88,10
1147,22.92,13
1149,22.96,11
1151,23,5
1153,23.04,7
1155,23.08,8
1157,23.12,6
1159,23.16,7
1161,23.2,3
1163,23.24,8
1165,23.28,9
1167,23.32,4
1169,23.36,6
1171,23.4,10
1173,23.44,3
1175,23.48,4
1177,23.52,5
1179,23.56,9
1181,23.6,7
1183,23.64,9
1185,23.68,9
1187,23.72,6
1189,23.76,6
1191,23.8,10
1193,23.84,10
1195,23.88,12
1197,23.92,6
1199,23.96,14
1201,24,5
1203,24.04,7
1205,24.08,6
1207,24.12,3
1209,24.16,9
1211,24.2,5
1213,24.24,6
1215,24.28,6
1217,24.32,9
1219,24.36,5
1221,24.4,6
1223,24.44,7
1225,24.48,4
1227,24.52,6
1229,24.56,7
1231,24.6,10
1233,24.64,18
1235,24.68,11
1237,24.72,11
1239,24.76,14
1241,24.8,15
1243,24.84,20
1245,24.88,29
1247,24.92,38
1249,24.96,40
1251,25,55
1253,25.04,43
1255,25.08,56
1257,25.12,52
1259,25.16,51
1261,25.2,50
1263,25.24,59
1265,25.28,55
1267,25.32,50
1269,25.36,44
1271,25.4,29
1273,25.44,21
1275,25.48,21
1277,25.52,10
1279,25.56,11
1281,25.6,12
1283,25.64,4
1285,25.68,4
1287,25.72,5
1289,25.76,6
1291,25.8,4
1293,25.84,4
1295,25.88,4
1297,25.92,9
1299,25.96,6
1301,26,4
1303,26.04,12
1305,26.08,16
1307,26.12,7
1309,26.16,8
1311,26.2,10
1313,26.24,11
1315,26.28,8
1317,26.32,14
1319,26.36,9
1321,26.4,15
1323,26.44,9
1325,26.48,6
1327,26.52,3
1329,26.56,2
1331,26.6,4
1333,26.64,9
1335,26.68,6
1337,26.72,7
1339,26.76,6
1341,26.8,8
1343,26.84,5
1345,26.88,6
1347,26.92,5
1349,26.96,8
1351,27,6
1353,27.04,2
1355,27.08,4
1357,27.12,7
1359,27.16,6
1361,27.2,2
1363,27.24,7
1365,27.28,3
1367,27.32,11
1369,27.36,3
1371,27.4,4
1373,27.44,3
1375,27.48,5
1377,27.52,1
1379,27.56,4
1381,27.6,7
1383,27.64,2
1385,27.68,12
1387,27.72,6
1389,27.76,5
1391,27.8,7
1393,27.84,1
1395,27.88,6
1397,27.92,6
1399,27.96,9
1401,28,6
1403,28.04,6
1405,28.08,5
1407,28.12,6
1409,28.16,7
1411,28.2,10
1413,28.24,11
1415,28.28,12
1417,28.32,12
1419,28.36,18
1421,28.4,10
1423,28.44,19
1425,28.48,13
1427,28.52,11
1429,28.56,18
1431,28.6,11
1433,28.64,9
1435,28.68,5
1437,28.72,10
1439,28.76,6
1441,28.8,6
1443,28.84,6
1445,28.88,6
1447,28.92,5
1449,28.96,7
1451,29,3
1453,29.04,6
1455,29.08,2
1457,29.12,10
1459,29.16,4
1461,29.2,9
1463,29.24,3
1465,29.28,9
1467,29.32,7
1469,29.36,4
1471,29.4,3
1473,29.44,4
1475,29.48,5
1477,29.52,13
1479,29.56,6
1481,29.6,5
1483,29.64,10
1485,29.68,8
1487,29.72,4
1489,29.76,6
1491,29.8,3
1493,29.84,6
1495,29.88,7
1497,29.92,4
1499,29.96,2
1501,30,5
1503,30.04,5
1505,30.08,0
1507,30.12,6
1509,30.16,4
1511,30.2,8
1513,30.24,3
1515,30.28,4
1517,30.32,4
1519,30.36,5
1521,30.4,2
1523,30.44,2
1525,30.48,2
1527,30.52,4
1529,30.56,3
1531,30.6,5
1533,30.64,1
1535,30.68,3
1537,30.72,8
1539,30.76,6
1541,30.8,4
1543,30.84,5
1545,30.88,4
1547,30.92,4
1549,30.96,4
1551,31,5
1553,31.04,6
1555,31.08,5
1557,31.12,9
1559,31.16,3
1561,31.2,2
1563,31.24,2
1565,31.28,3
1567,31.32,4
1569,31.36,2
1571,31.4,1
1573,31.44,3
1575,31.48,3
1577,31.52,2
1579,31.56,3
1581,31.6,4
1583,31.64,4
1585,31.68,4
1587,31.72,3
1589,31.76,5
1591,31.8,3
1593,31.84,0
1595,31.88,5
1597,31.92,3
1599,31.96,1
1601,32,4
1603,32.04,6
1605,32.08,1
1607,32.12,5
1609,32.16,6
1611,32.2,1
1613,32.24,4
1615,32.28,5
1617,32.32,9
1619,32.36,2
1621,32.4,5
1623,32.44,5
1625,32.48,5
1627,32.52,5
1629,32.56,2
1631,32.6,4
1633,32.64,0
1635,32.68,2
1637,32.72,4
1639,32.76,4
1641,32.8,2
1643,32.84,6
1645,32.88,7
1647,32.92,6
1649,32.96,2
1651,33,3
1653,33.04,5
1655,33.08,4
1657,33.12,4
1659,33.16,4
1661,33.2,4
1663,33.24,4
1665,33.28,3
1667,33.32,4
1669,33.36,3
1671,33.4,1
1673,33.44,6
1675,33.48,2
1677,33.52,2
1679,33.56,2
1681,33.6,6
1683,33.64,2
1685,33.68,0
1687,33.72,4
1689,33.76,4
1691,33.8,3
1693,33.84,5
1695,33.88,5
1697,33.92,2
1699,33.96,2
1701,34,1
1703,34.04,3
1705,34.08,3
1707,34.12,1
1709,34.16,8
1711,34.2,1
1713,34.24,3
1715,34.28,0
1717,34.32,2
1719,34.36,0
1721,34.4,2
1723,34.44,2
1725,34.48,3
1727,34.52,5
1729,34.56,1
1731,34.6,3
1733,34.64,1
1735,34.68,4
1737,34.72,1
1739,34.76,2
1741,34.8,2
1743,34.84,2
1745,34.88,7
1747,34.92,1
1749,34.96,3
1751,35,2
1753,35.04,0
1755,35.08,4
1757,35.12,0
1759,35.16,1
1761,35.2,7
1763,35.24,0
1765,35.28,0
1767,35.32,1
1769,35.36,1
1771,35.4,1
1773,35.44,0
1775,35.48,0
1777,35.52,4
1779,35.56,0
1781,35.6,1
1783,35.64,1
1785,35.68,4
1787,35.72,0
1789,35.76,3
1791,35.8,1
1793,35.84,2
1795,35.88,1
1797,35.92,2
1799,35.96,0
1801,36,1
1803,36.04,1
1805,36.08,2
1807,36.12,2
1809,36.16,3
1811,36.2,3
1813,36.24,3
1815,36.28,0
1817,36.32,1
1819,36.36,3
1821,36.4,1
1823,36.44,1
1825,36.48,3
1827,36.52,1
1829,36.56,4
1831,36.6,2
1833,36.64,0
1835,36.68,1
1837,36.72,0
1839,36.76,3
1841,36.8,4
1843,36.84,1
1845,36.88,2
1847,36.92,0
1849,36.96,0
1851,37,0
1853,37.04,0
1855,37.08,0
1857,37.12,2
1859,37.16,3
1861,37.2,3
1863,37.24,1
1865,37.28,1
1867,37.32,1
1869,37.36,0
1871,37.4,1
1873,37.44,1
1875,37.48,4
1877,37.52,0
1879,37.56,1
1881,37.6,0
1883,37.64,3
1885,37.68,1
1887,37.72,2
1889,37.76,2
1891,37.8,0
1893,37.84,0
1895,37.88,2
1897,37.92,3
1899,37.96,1
1901,38,1
1903,38.04,0
1905,38.08,1
1907,38.12,1
1909,38.16,1
1911,38.2,1
1913,38.24,0
1915,38.28,0
1917,38.32,0
1919,38.36,0
1921,38.4,2
1923,38.44,0
1925,38.48,0
1927,38.52,0
1929,38.56,0
1931,38.6,0
1933,38.64,0
1935,38.68,0
1937,38.72,0
1939,38.76,0
1941,38.8,0
1943,38.84,1
1945,38.88,0
1947,38.92,0
1949,38.96,0
1951,39,0
1953,39.04,1
1955,39.08,1
1957,39.12,0
1959,39.16,0
1961,39.2,1
1963,39.24,0
1965,39.28,0
1967,39.32,1
1969,39.36,1
1971,39.4,0
1973,39.44,0
1975,39.48,0
1977,39.52,0
1979,39.56,0
1981,39.6,0
1983,39.64,0
1985,39.68,0
1987,39.72,0
1989,39.76,0
1991,39.8,0
1993,39.84,0
1995,39.88,0
1997,39.92,0
1999,39.96,0
2001,40,0
2003,40.04,1
2005,40.08,0
2007,40.12,0
2009,40.16,0
2011,40.2,0
2013,40.24,0
2015,40.28,0
2017,40.32,0
2019,40.36,0
2021,40.4,0
2023,40.44,0
2025,40.48,0
2027,40.52,0
2029,40.56,0
2031,40.6,0
2033,40.64,0
2035,40.68,0
2037,40.72,0
2039,40.76,0
2041,40.8,0
2043,40.84,0
2045,40.88,0
2047,40.92,0
2048,40.94,1