File: XRF Scan 2 Head.csv
Bruker AXS HMP Instrument Tools Complete CSV
FileName,C:\Users\skel2534\Desktop\Sydney Grammar\Jack Glass\XRF Scan 2 Head.pdz
SerialString,
TubeTargetElement,45
NumberOfSpectra,1
SampleID,
AcquisitionDateTime,11/05/2021 11:51:36 AM
TotalElapsedTimeInSeconds,31
AnodeTakeOffAngle,53
SampleIncidenceAngle,45
BeThicknessInMicroMeters,75
SampleTakeOffAngle,65
SpotSizeUsed,-1
XrayVoltageInkV,40,
XrayFilamentCurrentInMicroAmps,3.2,
RawCounts,268329,
ValidCounts,202388,
eVPerChannel,20,
StartingKeV,0,
ZeroOffsetInKeV,0,
StartingChannel,0,
NumberOfChannels,2048,
CountsPerSecond,8944.3,
XilinxFirmwareVersion,808,
IlluminationID,,
Filter1ElementAtomicNum,22,
Filter1Thickness,25,
Filter2ElementAtomicNum,13,
Filter2Thickness,300,
Filter3ElementAtomicNum,0,
Filter3Thickness,0,
AcquisitionDateTime,11/05/2021 11:51:36 AM,
LiveTimeInSeconds,24.13,
DeadTimeInSeconds,5.840001,
ResetTimeInSeconds,0.142,
DetectorTempInC,-40.5,
AmbientTempInF,94.4,
NosePressureInMilliBars,,
NoseTemperatureInC,,
ActiveTimeInSeconds,30,
PacketTimeInSeconds,30.142,
CommunicationTimeInSeconds,0.8579998,
ElapsedClockTimeInSeconds,31,
Spectrum:ChannelNumber,ChannelStartInKeV,ChannelCount
1,0,7
3,0.04,1
5,0.08,6
7,0.12,2
9,0.16,1
11,0.2,0
13,0.24,0
15,0.28,0
17,0.32,0
19,0.36,0
21,0.4,0
23,0.44,0
25,0.48,1
27,0.52,1
29,0.56,2
31,0.6,4
33,0.64,6
35,0.68,3
37,0.72,10
39,0.76,11
41,0.8,9
43,0.84,7
45,0.88,9
47,0.92,11
49,0.96,13
51,1,10
53,1.04,11
55,1.08,10
57,1.12,10
59,1.16,7
61,1.2,8
63,1.24,12
65,1.28,7
67,1.32,6
69,1.36,10
71,1.4,14
73,1.44,6
75,1.48,7
77,1.52,10
79,1.56,8
81,1.6,7
83,1.64,11
85,1.68,8
87,1.72,5
89,1.76,8
91,1.8,8
93,1.84,5
95,1.88,11
97,1.92,2
99,1.96,7
101,2,2
103,2.04,6
105,2.08,6
107,2.12,2
109,2.16,12
111,2.2,4
113,2.24,7
115,2.28,7
117,2.32,8
119,2.36,14
121,2.4,17
123,2.44,19
125,2.48,17
127,2.52,15
129,2.56,15
131,2.6,14
133,2.64,15
135,2.68,15
137,2.72,12
139,2.76,9
141,2.8,8
143,2.84,5
145,2.88,4
147,2.92,7
149,2.96,11
151,3,3
153,3.04,6
155,3.08,6
157,3.12,2
159,3.16,5
161,3.2,6
163,3.24,4
165,3.28,3
167,3.32,6
169,3.36,5
171,3.4,9
173,3.44,4
175,3.48,7
177,3.52,11
179,3.56,1
181,3.6,9
183,3.64,4
185,3.68,2
187,3.72,3
189,3.76,4
191,3.8,7
193,3.84,2
195,3.88,0
197,3.92,3
199,3.96,4
201,4,3
203,4.04,9
205,4.08,4
207,4.12,4
209,4.16,1
211,4.2,5
213,4.24,4
215,4.28,2
217,4.32,6
219,4.36,2
221,4.4,2
223,4.44,3
225,4.48,3
227,4.52,3
229,4.56,3
231,4.6,3
233,4.64,2
235,4.68,0
237,4.72,0
239,4.76,2
241,4.8,3
243,4.84,4
245,4.88,2
247,4.92,9
249,4.96,18
251,5,8
253,5.04,7
255,5.08,14
257,5.12,10
259,5.16,11
261,5.2,4
263,5.24,2
265,5.28,2
267,5.32,3
269,5.36,3
271,5.4,3
273,5.44,7
275,5.48,7
277,5.52,2
279,5.56,12
281,5.6,8
283,5.64,4
285,5.68,5
287,5.72,3
289,5.76,3
291,5.8,5
293,5.84,3
295,5.88,9
297,5.92,5
299,5.96,5
301,6,5
303,6.04,6
305,6.08,2
307,6.12,11
309,6.16,17
311,6.2,19
313,6.24,27
315,6.28,44
317,6.32,45
319,6.36,35
321,6.4,39
323,6.44,35
325,6.48,18
327,6.52,22
329,6.56,8
331,6.6,12
333,6.64,7
335,6.68,6
337,6.72,6
339,6.76,7
341,6.8,7
343,6.84,10
345,6.88,13
347,6.92,13
349,6.96,8
351,7,14
353,7.04,13
355,7.08,9
357,7.12,12
359,7.16,14
361,7.2,10
363,7.24,9
365,7.28,10
367,7.32,15
369,7.36,13
371,7.4,22
373,7.44,18
375,7.48,21
377,7.52,27
379,7.56,31
381,7.6,28
383,7.64,39
385,7.68,48
387,7.72,84
389,7.76,187
391,7.8,494
393,7.84,1171
395,7.88,2753
397,7.92,5164
399,7.96,8331
401,8,11005
403,8.04,12497
405,8.08,11735
407,8.12,9150
409,8.16,5788
411,8.2,3313
413,8.24,1670
415,8.28,668
417,8.32,286
419,8.36,132
421,8.4,69
423,8.44,49
425,8.48,47
427,8.52,51
429,8.56,37
431,8.6,76
433,8.64,119
435,8.68,173
437,8.72,396
439,8.76,708
441,8.8,1177
443,8.84,1635
445,8.88,1986
447,8.92,1979
449,8.96,1704
451,9,1237
453,9.04,795
455,9.08,454
457,9.12,188
459,9.16,91
461,9.2,35
463,9.24,20
465,9.28,15
467,9.32,10
469,9.36,7
471,9.4,6
473,9.44,1
475,9.48,3
477,9.52,1
479,9.56,3
481,9.6,5
483,9.64,2
485,9.68,6
487,9.72,2
489,9.76,4
491,9.8,2
493,9.84,3
495,9.88,4
497,9.92,3
499,9.96,8
501,10,1
503,10.04,5
505,10.08,1
507,10.12,2
509,10.16,9
511,10.2,4
513,10.24,4
515,10.28,21
517,10.32,37
519,10.36,65
521,10.4,134
523,10.44,194
525,10.48,307
527,10.52,312
529,10.56,365
531,10.6,326
533,10.64,221
535,10.68,149
537,10.72,87
539,10.76,47
541,10.8,21
543,10.84,12
545,10.88,7
547,10.92,8
549,10.96,16
551,11,29
553,11.04,33
555,11.08,83
557,11.12,120
559,11.16,160
561,11.2,170
563,11.24,158
565,11.28,136
567,11.32,133
569,11.36,84
571,11.4,40
573,11.44,17
575,11.48,12
577,11.52,7
579,11.56,3
581,11.6,4
583,11.64,11
585,11.68,7
587,11.72,6
589,11.76,7
591,11.8,7
593,11.84,6
595,11.88,3
597,11.92,5
599,11.96,9
601,12,7
603,12.04,14
605,12.08,11
607,12.12,7
609,12.16,15
611,12.2,19
613,12.24,25
615,12.28,36
617,12.32,24
619,12.36,43
621,12.4,58
623,12.44,119
625,12.48,170
627,12.52,236
629,12.56,301
631,12.6,250
633,12.64,283
635,12.68,258
637,12.72,185
639,12.76,132
641,12.8,83
643,12.84,65
645,12.88,34
647,12.92,30
649,12.96,22
651,13,15
653,13.04,11
655,13.08,15
657,13.12,11
659,13.16,14
661,13.2,13
663,13.24,5
665,13.28,6
667,13.32,4
669,13.36,5
671,13.4,4
673,13.44,3
675,13.48,5
677,13.52,5
679,13.56,6
681,13.6,5
683,13.64,6
685,13.68,5
687,13.72,4
689,13.76,5
691,13.8,4
693,13.84,1
695,13.88,3
697,13.92,8
699,13.96,6
701,14,5
703,14.04,4
705,14.08,3
707,14.12,4
709,14.16,10
711,14.2,9
713,14.24,9
715,14.28,9
717,14.32,9
719,14.36,4
721,14.4,11
723,14.44,8
725,14.48,8
727,14.52,9
729,14.56,8
731,14.6,16
733,14.64,44
735,14.68,36
737,14.72,46
739,14.76,49
741,14.8,45
743,14.84,46
745,14.88,35
747,14.92,21
749,14.96,20
751,15,18
753,15.04,20
755,15.08,20
757,15.12,18
759,15.16,21
761,15.2,20
763,15.24,21
765,15.28,12
767,15.32,12
769,15.36,9
771,15.4,11
773,15.44,9
775,15.48,5
777,15.52,5
779,15.56,9
781,15.6,10
783,15.64,1
785,15.68,7
787,15.72,7
789,15.76,11
791,15.8,15
793,15.84,11
795,15.88,27
797,15.92,27
799,15.96,37
801,16,72
803,16.04,66
805,16.08,78
807,16.12,71
809,16.16,70
811,16.2,50
813,16.24,33
815,16.28,25
817,16.32,17
819,16.36,13
821,16.4,12
823,16.44,7
825,16.48,6
827,16.52,5
829,16.56,3
831,16.6,9
833,16.64,6
835,16.68,7
837,16.72,8
839,16.76,15
841,16.8,16
843,16.84,26
845,16.88,26
847,16.92,36
849,16.96,29
851,17,27
853,17.04,24
855,17.08,24
857,17.12,13
859,17.16,13
861,17.2,9
863,17.24,7
865,17.28,8
867,17.32,11
869,17.36,7
871,17.4,6
873,17.44,4
875,17.48,4
877,17.52,5
879,17.56,7
881,17.6,10
883,17.64,6
885,17.68,8
887,17.72,10
889,17.76,12
891,17.8,11
893,17.84,16
895,17.88,12
897,17.92,7
899,17.96,7
901,18,12
903,18.04,6
905,18.08,8
907,18.12,5
909,18.16,5
911,18.2,8
913,18.24,14
915,18.28,8
917,18.32,8
919,18.36,5
921,18.4,11
923,18.44,7
925,18.48,9
927,18.52,20
929,18.56,14
931,18.6,20
933,18.64,15
935,18.68,18
937,18.72,15
939,18.76,12
941,18.8,12
943,18.84,17
945,18.88,12
947,18.92,16
949,18.96,12
951,19,13
953,19.04,12
955,19.08,23
957,19.12,19
959,19.16,13
961,19.2,13
963,19.24,23
965,19.28,11
967,19.32,17
969,19.36,19
971,19.4,17
973,19.44,18
975,19.48,14
977,19.52,11
979,19.56,18
981,19.6,15
983,19.64,17
985,19.68,15
987,19.72,24
989,19.76,19
991,19.8,14
993,19.84,12
995,19.88,23
997,19.92,20
999,19.96,22
1001,20,30
1003,20.04,30
1005,20.08,38
1007,20.12,45
1009,20.16,38
1011,20.2,50
1013,20.24,33
1015,20.28,32
1017,20.32,29
1019,20.36,23
1021,20.4,18
1023,20.44,21
1025,20.48,15
1027,20.52,11
1029,20.56,10
1031,20.6,12
1033,20.64,8
1035,20.68,10
1037,20.72,13
1039,20.76,11
1041,20.8,7
1043,20.84,2
1045,20.88,10
1047,20.92,8
1049,20.96,6
1051,21,7
1053,21.04,12
1055,21.08,9
1057,21.12,10
1059,21.16,6
1061,21.2,7
1063,21.24,7
1065,21.28,12
1067,21.32,16
1069,21.36,13
1071,21.4,5
1073,21.44,5
1075,21.48,8
1077,21.52,5
1079,21.56,8
1081,21.6,10
1083,21.64,4
1085,21.68,12
1087,21.72,16
1089,21.76,12
1091,21.8,16
1093,21.84,27
1095,21.88,23
1097,21.92,30
1099,21.96,42
1101,22,52
1103,22.04,41
1105,22.08,55
1107,22.12,45
1109,22.16,51
1111,22.2,63
1113,22.24,50
1115,22.28,41
1117,22.32,26
1119,22.36,13
1121,22.4,16
1123,22.44,12
1125,22.48,14
1127,22.52,11
1129,22.56,13
1131,22.6,15
1133,22.64,8
1135,22.68,17
1137,22.72,14
1139,22.76,10
1141,22.8,11
1143,22.84,16
1145,22.88,7
1147,22.92,10
1149,22.96,7
1151,23,9
1153,23.04,6
1155,23.08,9
1157,23.12,7
1159,23.16,10
1161,23.2,7
1163,23.24,4
1165,23.28,7
1167,23.32,5
1169,23.36,9
1171,23.4,10
1173,23.44,9
1175,23.48,3
1177,23.52,5
1179,23.56,6
1181,23.6,8
1183,23.64,5
1185,23.68,6
1187,23.72,9
1189,23.76,6
1191,23.8,7
1193,23.84,4
1195,23.88,6
1197,23.92,3
1199,23.96,6
1201,24,11
1203,24.04,6
1205,24.08,11
1207,24.12,6
1209,24.16,7
1211,24.2,11
1213,24.24,4
1215,24.28,5
1217,24.32,5
1219,24.36,6
1221,24.4,8
1223,24.44,2
1225,24.48,3
1227,24.52,9
1229,24.56,10
1231,24.6,8
1233,24.64,5
1235,24.68,9
1237,24.72,7
1239,24.76,10
1241,24.8,9
1243,24.84,11
1245,24.88,26
1247,24.92,19
1249,24.96,30
1251,25,25
1253,25.04,30
1255,25.08,28
1257,25.12,37
1259,25.16,37
1261,25.2,44
1263,25.24,37
1265,25.28,33
1267,25.32,28
1269,25.36,25
1271,25.4,31
1273,25.44,20
1275,25.48,9
1277,25.52,7
1279,25.56,6
1281,25.6,9
1283,25.64,7
1285,25.68,7
1287,25.72,4
1289,25.76,4
1291,25.8,3
1293,25.84,5
1295,25.88,3
1297,25.92,9
1299,25.96,12
1301,26,3
1303,26.04,11
1305,26.08,7
1307,26.12,6
1309,26.16,8
1311,26.2,6
1313,26.24,4
1315,26.28,5
1317,26.32,8
1319,26.36,7
1321,26.4,8
1323,26.44,7
1325,26.48,6
1327,26.52,6
1329,26.56,8
1331,26.6,3
1333,26.64,3
1335,26.68,8
1337,26.72,5
1339,26.76,5
1341,26.8,5
1343,26.84,5
1345,26.88,4
1347,26.92,10
1349,26.96,3
1351,27,8
1353,27.04,5
1355,27.08,4
1357,27.12,7
1359,27.16,5
1361,27.2,5
1363,27.24,8
1365,27.28,10
1367,27.32,6
1369,27.36,7
1371,27.4,5
1373,27.44,8
1375,27.48,7
1377,27.52,4
1379,27.56,5
1381,27.6,2
1383,27.64,3
1385,27.68,9
1387,27.72,7
1389,27.76,6
1391,27.8,4
1393,27.84,2
1395,27.88,2
1397,27.92,3
1399,27.96,9
1401,28,3
1403,28.04,7
1405,28.08,6
1407,28.12,2
1409,28.16,2
1411,28.2,3
1413,28.24,6
1415,28.28,6
1417,28.32,3
1419,28.36,11
1421,28.4,10
1423,28.44,10
1425,28.48,13
1427,28.52,21
1429,28.56,9
1431,28.6,6
1433,28.64,11
1435,28.68,6
1437,28.72,4
1439,28.76,5
1441,28.8,6
1443,28.84,4
1445,28.88,6
1447,28.92,2
1449,28.96,9
1451,29,6
1453,29.04,10
1455,29.08,4
1457,29.12,3
1459,29.16,9
1461,29.2,8
1463,29.24,7
1465,29.28,2
1467,29.32,5
1469,29.36,7
1471,29.4,9
1473,29.44,9
1475,29.48,5
1477,29.52,7
1479,29.56,7
1481,29.6,5
1483,29.64,5
1485,29.68,4
1487,29.72,3
1489,29.76,7
1491,29.8,6
1493,29.84,6
1495,29.88,5
1497,29.92,8
1499,29.96,8
1501,30,5
1503,30.04,7
1505,30.08,1
1507,30.12,4
1509,30.16,7
1511,30.2,3
1513,30.24,7
1515,30.28,6
1517,30.32,3
1519,30.36,4
1521,30.4,4
1523,30.44,5
1525,30.48,5
1527,30.52,6
1529,30.56,5
1531,30.6,4
1533,30.64,4
1535,30.68,4
1537,30.72,1
1539,30.76,4
1541,30.8,8
1543,30.84,2
1545,30.88,3
1547,30.92,2
1549,30.96,7
1551,31,6
1553,31.04,3
1555,31.08,2
1557,31.12,7
1559,31.16,5
1561,31.2,4
1563,31.24,2
1565,31.28,2
1567,31.32,4
1569,31.36,5
1571,31.4,4
1573,31.44,3
1575,31.48,3
1577,31.52,6
1579,31.56,2
1581,31.6,3
1583,31.64,5
1585,31.68,5
1587,31.72,5
1589,31.76,6
1591,31.8,4
1593,31.84,3
1595,31.88,1
1597,31.92,3
1599,31.96,2
1601,32,4
1603,32.04,1
1605,32.08,2
1607,32.12,2
1609,32.16,7
1611,32.2,2
1613,32.24,3
1615,32.28,0
1617,32.32,5
1619,32.36,3
1621,32.4,5
1623,32.44,3
1625,32.48,8
1627,32.52,3
1629,32.56,4
1631,32.6,4
1633,32.64,2
1635,32.68,0
1637,32.72,3
1639,32.76,7
1641,32.8,3
1643,32.84,5
1645,32.88,5
1647,32.92,1
1649,32.96,2
1651,33,3
1653,33.04,7
1655,33.08,3
1657,33.12,3
1659,33.16,4
1661,33.2,1
1663,33.24,4
1665,33.28,2
1667,33.32,5
1669,33.36,6
1671,33.4,0
1673,33.44,6
1675,33.48,0
1677,33.52,2
1679,33.56,4
1681,33.6,1
1683,33.64,0
1685,33.68,5
1687,33.72,1
1689,33.76,4
1691,33.8,4
1693,33.84,1
1695,33.88,0
1697,33.92,1
1699,33.96,2
1701,34,0
1703,34.04,4
1705,34.08,0
1707,34.12,2
1709,34.16,4
1711,34.2,2
1713,34.24,3
1715,34.28,4
1717,34.32,2
1719,34.36,6
1721,34.4,2
1723,34.44,1
1725,34.48,2
1727,34.52,2
1729,34.56,3
1731,34.6,1
1733,34.64,4
1735,34.68,3
1737,34.72,2
1739,34.76,2
1741,34.8,1
1743,34.84,0
1745,34.88,1
1747,34.92,0
1749,34.96,2
1751,35,1
1753,35.04,2
1755,35.08,2
1757,35.12,0
1759,35.16,6
1761,35.2,1
1763,35.24,2
1765,35.28,2
1767,35.32,5
1769,35.36,3
1771,35.4,0
1773,35.44,0
1775,35.48,3
1777,35.52,5
1779,35.56,1
1781,35.6,1
1783,35.64,3
1785,35.68,2
1787,35.72,1
1789,35.76,3
1791,35.8,2
1793,35.84,1
1795,35.88,1
1797,35.92,0
1799,35.96,1
1801,36,4
1803,36.04,2
1805,36.08,0
1807,36.12,3
1809,36.16,1
1811,36.2,1
1813,36.24,2
1815,36.28,3
1817,36.32,3
1819,36.36,1
1821,36.4,2
1823,36.44,1
1825,36.48,1
1827,36.52,0
1829,36.56,3
1831,36.6,5
1833,36.64,3
1835,36.68,0
1837,36.72,2
1839,36.76,2
1841,36.8,2
1843,36.84,0
1845,36.88,0
1847,36.92,2
1849,36.96,2
1851,37,0
1853,37.04,1
1855,37.08,0
1857,37.12,1
1859,37.16,1
1861,37.2,2
1863,37.24,0
1865,37.28,1
1867,37.32,2
1869,37.36,3
1871,37.4,0
1873,37.44,1
1875,37.48,0
1877,37.52,0
1879,37.56,1
1881,37.6,0
1883,37.64,2
1885,37.68,0
1887,37.72,0
1889,37.76,0
1891,37.8,0
1893,37.84,1
1895,37.88,1
1897,37.92,1
1899,37.96,1
1901,38,0
1903,38.04,0
1905,38.08,2
1907,38.12,1
1909,38.16,0
1911,38.2,0
1913,38.24,0
1915,38.28,0
1917,38.32,0
1919,38.36,2
1921,38.4,0
1923,38.44,0
1925,38.48,0
1927,38.52,0
1929,38.56,0
1931,38.6,0
1933,38.64,0
1935,38.68,0
1937,38.72,0
1939,38.76,1
1941,38.8,0
1943,38.84,0
1945,38.88,0
1947,38.92,0
1949,38.96,0
1951,39,0
1953,39.04,0
1955,39.08,0
1957,39.12,0
1959,39.16,0
1961,39.2,1
1963,39.24,0
1965,39.28,0
1967,39.32,0
1969,39.36,0
1971,39.4,0
1973,39.44,0
1975,39.48,0
1977,39.52,0
1979,39.56,0
1981,39.6,1
1983,39.64,0
1985,39.68,0
1987,39.72,0
1989,39.76,0
1991,39.8,0
1993,39.84,0
1995,39.88,0
1997,39.92,0
1999,39.96,0
2001,40,0
2003,40.04,0
2005,40.08,0
2007,40.12,0
2009,40.16,0
2011,40.2,0
2013,40.24,0
2015,40.28,0
2017,40.32,0
2019,40.36,0
2021,40.4,0
2023,40.44,0
2025,40.48,0
2027,40.52,1
2029,40.56,0
2031,40.6,0
2033,40.64,0
2035,40.68,0
2037,40.72,0
2039,40.76,0
2041,40.8,0
2043,40.84,0
2045,40.88,0
2047,40.92,0
2048,40.94,0